--data log start--
Chip ID: 3257343838321307001900
timestamp, battery, rresp, cresp, accelX, accelY, accelZ, temp, humidity, altitude, temp2
99172,1937-0,35471
99186,,,,0.025391,0.984375,-0.128906
99186,,,,,,,,,228.812500,23.750000
99196,1935-0,35332
99196,,,,0.026367,0.987305,-0.129883
99206,,,,0.027344,0.983398,-0.129883
99216,1936-0,35331
99217,,,,0.023438,0.977539,-0.130859
99227,,,,0.027344,0.982422,-0.120117
99237,1937-0,35329
99237,,,,0.030273,0.986328,-0.125977
99247,,,,0.031250,0.982422,-0.133789
99257,1937-0,35328
99258,,,,0.030273,0.983398,-0.128906
99268,,,,0.031250,0.990234,-0.122070
99278,1935-0,35327
99278,,,,0.027344,0.992188,-0.121094
99288,,,,0.028320,0.987305,-0.129883
99298,1936-0,35328
99299,,,,0.029297,0.988281,-0.126953
99309,,,,0.023438,0.988281,-0.117188
99278,,,,,,,25.608765,16.735596
99319,1937-0,35327
99319,,,,0.023438,0.981445,-0.118164
99329,,,,0.023438,0.976563,-0.121094
99339,1934-0,35326
99340,,,,0.026367,0.968750,-0.115234
99350,,,,0.023438,0.961914,-0.095703
99360,1935-0,35326
99360,,,,0.019531,0.971680,-0.084961
99371,,,,0.017578,0.958008,-0.101563
99380,1937-0,35329
99381,,,,0.014648,0.938477,-0.095703
99391,,,,0.005859,0.921875,-0.078125
99401,1933-0,35333
99401,,,,0.005859,0.905273,-0.081055
99412,,,,0.011719,0.896484,-0.092773
99422,1938-0,35341
99422,,,,0.003906,0.911133,-0.106445
99432,,,,-0.004883,0.939453,-0.072266
99442,1937-0,35348
99442,,,,0.006836,0.955078,-0.056641
99453,,,,0.014648,0.958984,-0.081055
99463,1939-0,35353
99463,,,,0.020508,0.954102,-0.054688
99473,,,,0.030273,0.958984,-0.042969
99483,1938-0,35359
99483,,,,0.037109,0.974609,-0.055664
99494,,,,0.046875,0.993164,-0.076172
99504,1937-0,35367
99504,,,,0.055664,1.012695,-0.081055
99514,,,,0.060547,1.041016,-0.066406
99524,1936-0,35378
99524,,,,0.064453,1.068359,-0.041992
99535,,,,0.064453,1.071289,-0.032227
99545,1940-0,35390
99545,,,,0.046875,1.050781,-0.057617
99555,,,,0.038086,1.024414,-0.083008
99565,1938-0,35400
99566,,,,0.033203,1.016602,-0.104492
99576,,,,0.018555,1.016602,-0.144531
99586,1937-0,35409
99586,,,,0.012695,1.011719,-0.163086
99596,,,,0.018555,0.999023,-0.178711
99606,1937-0,35418
99607,,,,0.023438,0.975586,-0.186523
99617,,,,0.031250,0.953125,-0.169922
99627,1937-0,35428
99627,,,,0.032227,0.949219,-0.145508
99637,,,,0.031250,0.950195,-0.121094
99647,1940-0,35439
99648,,,,0.032227,0.959961,-0.108398
99658,,,,0.032227,0.977539,-0.078125
99668,1938-0,35448
99668,,,,0.032227,0.987305,-0.050781
99678,,,,0.032227,1.000000,-0.058594
99688,1938-0,35458
99689,,,,0.038086,1.009766,-0.078125
99699,,,,0.038086,1.015625,-0.086914
99709,1937-0,35465
99709,,,,0.038086,1.021484,-0.105469
99719,,,,0.034180,1.031250,-0.105469
99729,1938-0,35469
99730,,,,0.031250,1.028320,-0.105469
99740,,,,0.024414,1.015625,-0.101563
99750,1938-0,35475
99750,,,,0.024414,1.004883,-0.098633
99760,,,,0.028320,0.995117,-0.100586
99770,1939-0,35479
99771,,,,0.034180,0.988281,-0.105469
99781,,,,0.034180,0.989258,-0.118164
99791,1935-0,35483
99791,,,,0.034180,0.988281,-0.140625
99802,,,,0.033203,0.989258,-0.157227
99812,1938-0,35490
99812,,,,0.032227,0.993164,-0.166992
99822,,,,0.028320,0.997070,-0.158203
99832,1938-0,35497
99832,,,,0.026367,0.994141,-0.144531
99843,,,,0.020508,0.995117,-0.134766
99853,1938-0,35504
99853,,,,0.023438,0.997070,-0.132813
99863,,,,0.024414,0.996094,-0.133789
99873,1937-0,35512
99873,,,,0.026367,0.994141,-0.131836
99884,,,,0.017578,0.994141,-0.125000
99894,1937-0,35517
99894,,,,0.022461,0.997070,-0.130859
99904,,,,0.011719,0.982422,-0.144531
99914,1938-0,35521
99914,,,,0.009766,0.990234,-0.145508
99925,,,,0.008789,0.997070,-0.126953
99935,1938-0,35524
99935,,,,0.013672,0.997070,-0.125000
99945,,,,0.014648,0.989258,-0.142578
99955,1938-0,35524
99956,,,,0.024414,0.979492,-0.130859
99966,,,,0.025391,0.984375,-0.125977
99976,1936-0,35529
99976,,,,0.024414,0.980469,-0.117188
99986,,,,0.027344,0.982422,-0.127930
99996,1939-0,35538
99997,,,,0.029297,0.975586,-0.145508
100007,,,,0.030273,0.974609,-0.161133
100017,1938-0,35545
100017,,,,0.030273,0.978516,-0.162109
100027,,,,0.029297,0.991211,-0.143555
100037,1939-0,35548
100038,,,,0.030273,1.000000,-0.133789
100048,,,,0.030273,1.002930,-0.129883
100058,1936-0,35547
100058,,,,0.027344,0.998047,-0.126953
100068,,,,0.024414,0.994141,-0.119141
100078,1938-0,35545
100079,,,,0.029297,0.994141,-0.116211
100089,,,,0.028320,0.991211,-0.116211
100099,1939-0,35545
100099,,,,0.022461,0.983398,-0.128906
100109,,,,0.022461,0.986328,-0.131836
100119,1939-0,35546
100120,,,,0.023438,0.985352,-0.132813
100130,,,,0.018555,0.988281,-0.131836
100140,1940-0,35546
100140,,,,0.015625,0.990234,-0.125000
100150,,,,0.016602,0.986328,-0.112305
100160,1941-0,35545
100161,,,,0.014648,0.987305,-0.105469
100171,,,,0.016602,0.984375,-0.107422
100181,1939-0,35545
100181,,,,0.014648,0.985352,-0.113281
100192,,,,0.015625,0.985352,-0.109375
100202,1938-0,35543
100202,,,,0.013672,0.990234,-0.108398
100212,,,,0.013672,0.996094,-0.111328
100222,1939-0,35541
100222,,,,0.017578,0.999023,-0.111328
100233,,,,0.020508,1.000000,-0.109375
100243,1939-0,35537
100243,,,,0.016602,1.000977,-0.108398
100253,,,,0.017578,1.000000,-0.104492
100263,1941-0,35532
100263,,,,0.016602,1.001953,-0.102539
100274,,,,0.012695,0.993164,-0.093750
100284,1937-0,35528
100284,,,,0.013672,0.987305,-0.096680
100294,,,,0.017578,0.988281,-0.102539
100304,1937-0,35524
100304,,,,0.011719,0.988281,-0.070313
100315,,,,0.006836,0.993164,-0.072266
100325,1938-0,35521
100325,,,,0.007813,0.986328,-0.083008
100335,,,,0.011719,0.982422,-0.077148
100345,1939-0,35519
100346,,,,0.008789,0.982422,-0.070313
100356,,,,0.003906,0.985352,-0.078125
100366,1938-0,35517
100366,,,,0.007813,0.991211,-0.073242
100376,,,,0.002930,0.993164,-0.067383
100386,1937-0,35516
100387,,,,0.005859,0.994141,-0.057617
100397,,,,-0.000977,0.991211,-0.052734
100407,1939-0,35515
100407,,,,0.001953,0.993164,-0.055664
100417,,,,0.003906,0.990234,-0.053711
100427,1938-0,35514
100428,,,,0.001953,0.995117,-0.059570
100438,,,,0.000000,0.993164,-0.055664
100448,1938-0,35513
100448,,,,-0.001953,0.994141,-0.055664
100458,,,,-0.002930,0.995117,-0.053711
100468,1939-0,35513
100469,,,,-0.001953,0.995117,-0.049805
100479,,,,0.002930,1.000977,-0.051758
100489,1939-0,35514
100489,,,,0.005859,0.998047,-0.066406
100499,,,,0.009766,0.988281,-0.058594
100509,1938-0,35515
100510,,,,0.004883,0.992188,-0.052734
100520,,,,-0.000977,0.998047,-0.041016
100530,1933-0,35518
100530,,,,0.003906,1.000977,-0.036133
100541,,,,0.004883,1.002930,-0.045898
100551,1936-0,35520
100551,,,,0.003906,0.994141,-0.047852
100561,,,,0.000977,0.990234,-0.042969
100571,1937-0,35520
100571,,,,0.004883,0.989258,-0.042969
100582,,,,0.001953,0.972656,-0.028320
100592,1937-0,35523
100592,,,,0.000000,0.970703,-0.034180
100602,,,,-0.001953,0.976563,-0.039063
100612,1936-0,35524
100612,,,,0.002930,0.994141,-0.038086
100623,,,,0.000977,1.011719,-0.026367
100633,1935-0,35522
100633,,,,0.001953,1.009766,-0.028320
100643,,,,0.000000,1.000000,-0.023438
100653,1937-0,35522
100654,,,,0.003906,1.000000,-0.027344
100664,,,,-0.000977,0.996094,-0.031250
100674,1936-0,35524
100674,,,,-0.002930,0.996094,-0.019531
100684,,,,0.003906,0.994141,-0.009766
100694,1936-0,35522
100695,,,,0.001953,0.997070,-0.018555
100705,,,,0.003906,0.997070,-0.021484
100715,1938-0,35521
100715,,,,0.000000,0.996094,-0.020508
100725,,,,0.000977,1.000977,-0.019531
100735,1939-0,35519
100736,,,,0.001953,0.997070,-0.011719
100746,,,,-0.000977,0.981445,-0.000977
100756,1937-0,35517
100756,,,,-0.002930,0.993164,-0.015625
100766,,,,-0.000977,0.988281,-0.022461
100776,1938-0,35515
100777,,,,-0.009766,0.986328,-0.018555
100787,,,,0.004883,0.997070,0.003906
100797,1939-0,35513
100797,,,,-0.005859,1.007813,0.012695
100807,,,,0.007813,1.011719,0.007813
100817,1939-0,35511
100818,,,,0.007813,1.001953,0.000977
100828,,,,-0.004883,0.996094,-0.012695
100838,1940-0,35509
100838,,,,-0.010742,0.996094,-0.017578
100849,,,,-0.006836,0.988281,0.010742
100858,1938-0,35506
100859,,,,-0.001953,0.995117,0.000000
100869,,,,-0.001953,0.989258,0.001953
100879,1941-0,35503
100879,,,,-0.011719,0.972656,0.013672
100890,,,,-0.006836,0.974609,0.019531
100900,1938-0,35504
100900,,,,-0.007813,0.992188,0.007813
100910,,,,0.000977,1.001953,0.013672
100920,1936-0,35504
100920,,,,0.004883,0.994141,0.028320
100931,,,,-0.004883,0.996094,0.022461
100941,1938-0,35508
100941,,,,-0.003906,0.977539,0.022461
100951,,,,-0.003906,1.000000,0.016602
100961,1936-0,35512
100961,,,,-0.004883,1.013672,0.022461
100972,,,,-0.021484,0.967773,0.046875
100982,1937-0,35514
100982,,,,-0.003906,1.010742,0.019531
100992,,,,-0.002930,1.008789,0.023438
101002,1939-0,35514
101003,,,,-0.011719,1.005859,0.041016
101013,,,,-0.009766,1.011719,0.043945
101023,1936-0,35513
101023,,,,-0.023438,0.990234,0.062500
101033,,,,-0.018555,0.990234,0.054688
101043,1936-0,35513
101044,,,,-0.003906,1.002930,0.034180
101054,,,,-0.007813,0.995117,0.041016
101064,1939-0,35513
101064,,,,0.003906,0.990234,0.071289
101074,,,,-0.001953,1.005859,0.051758
101084,1936-0,35513
101085,,,,-0.011719,1.015625,0.043945
101095,,,,-0.020508,1.008789,0.064453
101105,1938-0,35511
101105,,,,-0.025391,0.993164,0.087891
101115,,,,0.005859,1.018555,0.085938
101125,1937-0,35508
101126,,,,-0.015625,1.003906,0.044922
101136,,,,-0.014648,0.992188,0.081055
101146,1936-0,35507
101146,,,,-0.009766,1.011719,0.092773
101156,,,,-0.002930,1.010742,0.096680
101166,1935-0,35505
101167,,,,-0.005859,1.001953,0.091797
101177,,,,-0.025391,0.990234,0.087891
101187,1935-0,35501
101187,,,,-0.019531,0.990234,0.098633
101197,,,,-0.014648,0.976563,0.092773
101207,1940-0,35498
101208,,,,-0.011719,0.972656,0.086914
101218,,,,-0.006836,1.009766,0.093750
101228,1938-0,35492
101228,,,,-0.017578,0.990234,0.106445
101239,,,,-0.019531,0.992188,0.123047
101249,1939-0,35487
101249,,,,-0.008789,0.990234,0.108398
101259,,,,-0.031250,0.957031,0.105469
101269,1939-0,35481
101269,,,,0.010742,1.000000,0.098633
101280,,,,-0.009766,0.988281,0.099609
101290,1939-0,35477
101290,,,,-0.016602,0.982422,0.106445
101300,,,,0.000000,1.001953,0.109375
101310,1940-0,35473
101310,,,,-0.004883,1.000977,0.103516
101321,,,,-0.003906,0.996094,0.109375
101331,1938-0,35467
101331,,,,-0.001953,0.989258,0.099609
101341,,,,-0.005859,0.982422,0.111328
101351,1936-0,35462
101351,,,,-0.011719,0.979492,0.111328
101362,,,,-0.010742,0.981445,0.114258
101372,1938-0,35456
101372,,,,-0.006836,0.981445,0.104492
101382,,,,-0.000977,0.981445,0.102539
101392,1938-0,35452
101393,,,,-0.002930,0.981445,0.100586
101403,,,,0.005859,0.987305,0.111328
101413,1937-0,35447
101413,,,,0.002930,0.980469,0.110352
101423,,,,0.005859,0.992188,0.097656
101433,1938-0,35441
101434,,,,0.001953,0.985352,0.091797
101444,,,,0.001953,0.981445,0.103516
101454,1935-0,35436
101454,,,,-0.002930,0.973633,0.112305
101464,,,,0.000000,0.980469,0.107422
101474,1936-0,35431
101475,,,,0.002930,0.971680,0.101563
101485,,,,0.000000,0.983398,0.096680
101495,1938-0,35427
101495,,,,0.006836,0.988281,0.086914
101505,,,,0.001953,0.991211,0.082031
101515,1937-0,35423
101516,,,,0.002930,0.992188,0.076172
101526,,,,0.004883,0.993164,0.072266
101536,1937-0,35419
101536,,,,0.000977,0.996094,0.072266
101546,,,,0.003906,0.992188,0.076172
101556,1937-0,35413
101557,,,,-0.001953,0.984375,0.082031
101567,,,,0.007813,0.987305,0.074219
101577,1939-0,35407
101577,,,,0.004883,0.983398,0.064453
101588,,,,0.004883,0.990234,0.055664
101598,1937-0,35403
101598,,,,0.012695,0.994141,0.047852
101608,,,,0.011719,0.995117,0.040039
101618,1938-0,35399
101618,,,,0.013672,0.991211,0.051758
101629,,,,0.013672,0.984375,0.058594
101639,1939-0,35396
101639,,,,0.010742,0.982422,0.048828
101649,,,,0.009766,0.981445,0.023438
101659,1937-0,35391
101659,,,,0.005859,0.983398,0.023438
101670,,,,0.009766,0.990234,0.033203
101680,1937-0,35390
101680,,,,0.005859,0.989258,0.036133
101690,,,,0.009766,0.998047,0.023438
101700,1937-0,35387
101701,,,,0.009766,0.997070,0.011719
101711,,,,0.008789,0.977539,0.010742
101721,1933-0,35384
101721,,,,0.011719,0.982422,0.014648
101731,,,,0.015625,0.981445,0.006836
101741,1935-0,35380
101742,,,,0.012695,0.990234,-0.004883
101752,,,,0.007813,0.990234,-0.018555
101762,1936-0,35377
101762,,,,0.005859,0.991211,0.016602
101772,,,,0.014648,0.993164,0.001953
101782,1937-0,35375
101783,,,,0.013672,0.990234,-0.010742
101793,,,,0.010742,0.981445,-0.009766
101803,1938-0,35371
101803,,,,0.012695,0.986328,-0.011719
101813,,,,0.010742,0.994141,-0.015625
101823,1938-0,35367
101824,,,,0.014648,1.004883,-0.035156
101834,,,,0.014648,1.001953,-0.039063
101844,1939-0,35363
101844,,,,0.010742,0.995117,-0.023438
101854,,,,0.011719,0.994141,-0.021484
101864,1936-0,35361
101865,,,,0.010742,0.984375,-0.019531
101875,,,,0.011719,0.982422,-0.025391
101885,1937-0,35358
101885,,,,0.012695,0.979492,-0.031250
101896,,,,0.011719,0.988281,-0.033203
101905,1938-0,35355
101906,,,,0.004883,0.997070,-0.042969
101916,,,,0.004883,0.998047,-0.041016
101926,1937-0,35352
101926,,,,0.006836,0.997070,-0.038086
101937,,,,0.010742,0.996094,-0.047852
101947,1938-0,35348
101947,,,,0.008789,0.993164,-0.047852
101957,,,,0.013672,0.995117,-0.046875
101967,1937-0,35345
101967,,,,0.012695,0.996094,-0.042969
101978,,,,0.009766,0.992188,-0.039063
101988,1938-0,35343
101988,,,,0.012695,0.992188,-0.047852
101998,,,,0.011719,0.989258,-0.050781
102008,1941-0,35341
102008,,,,0.010742,0.988281,-0.050781
102019,,,,0.011719,0.988281,-0.050781
102029,1939-0,35341
102029,,,,0.013672,0.990234,-0.055664
102039,,,,0.013672,0.987305,-0.067383
102049,1940-0,35339
102049,,,,0.013672,0.989258,-0.060547
102060,,,,0.012695,0.981445,-0.051758
102070,1940-0,35337
102070,,,,0.011719,0.984375,-0.054688
102080,,,,0.016602,0.985352,-0.066406
102090,1939-0,35335
102091,,,,0.016602,0.986328,-0.070313
102101,,,,0.012695,0.988281,-0.064453
102111,1941-0,35334
102111,,,,0.006836,0.991211,-0.053711
102121,,,,0.016602,0.992188,-0.070313
102131,1938-0,35333
102132,,,,0.012695,0.988281,-0.081055
102142,,,,0.006836,0.990234,-0.066406
102152,1936-0,35331
102152,,,,0.011719,0.990234,-0.063477
102162,,,,0.008789,0.982422,-0.069336
102172,1939-0,35329
102173,,,,0.012695,0.982422,-0.055664
102183,,,,0.011719,0.980469,-0.073242
102193,1939-0,35328
102193,,,,0.012695,0.988281,-0.074219
102203,,,,0.016602,0.993164,-0.072266
102213,1938-0,35329
102214,,,,0.011719,0.992188,-0.074219
102224,,,,0.015625,0.991211,-0.070313
102234,1939-0,35328
102234,,,,0.017578,0.987305,-0.076172
102244,,,,0.021484,0.986328,-0.078125
102254,1937-0,35326
102255,,,,0.015625,0.987305,-0.074219
102265,,,,0.014648,0.988281,-0.068359
102275,1938-0,35324
102275,,,,0.009766,0.994141,-0.069336
102286,,,,0.013672,0.992188,-0.081055
102295,1939-0,35324
102296,,,,0.016602,0.988281,-0.075195
102306,,,,0.011719,0.992188,-0.074219
102316,1939-0,35324
102316,,,,0.018555,0.994141,-0.079102
102327,,,,0.013672,0.989258,-0.084961
102337,1938-0,35323
102337,,,,0.016602,0.988281,-0.078125
102347,,,,0.009766,0.988281,-0.076172
102357,1938-0,35320
102357,,,,0.014648,0.986328,-0.077148
102368,,,,0.013672,0.989258,-0.075195
102378,1936-0,35318
102378,,,,0.012695,0.996094,-0.086914
102388,,,,0.012695,0.991211,-0.077148
102398,1940-0,35317
102398,,,,0.011719,0.991211,-0.080078
102409,,,,0.013672,0.989258,-0.077148
102419,1936-0,35315
102419,,,,0.011719,0.993164,-0.070313
102429,,,,0.014648,0.991211,-0.074219
102439,1937-0,35313
102440,,,,0.014648,0.986328,-0.072266
102450,,,,0.011719,0.993164,-0.076172
102460,1940-0,35312
102460,,,,0.014648,0.993164,-0.075195
102470,,,,0.010742,0.993164,-0.067383
102480,1938-0,35311
102481,,,,0.013672,0.992188,-0.077148
102491,,,,0.011719,0.994141,-0.080078
102501,1937-0,35310
102501,,,,0.011719,0.997070,-0.069336
102511,,,,0.010742,0.992188,-0.067383
102521,1936-0,35309
102522,,,,0.009766,0.989258,-0.071289
102532,,,,0.008789,0.990234,-0.066406
102542,1937-0,35308
102542,,,,0.010742,0.987305,-0.069336
102552,,,,0.010742,0.983398,-0.075195
102562,1938-0,35308
102563,,,,0.009766,0.990234,-0.075195
102573,,,,0.015625,0.990234,-0.070313
102583,1943-0,35308
102583,,,,0.006836,0.984375,-0.065430
102593,,,,0.007813,0.982422,-0.071289
102603,1940-0,35309
102604,,,,0.006836,0.985352,-0.037109
102614,,,,0.004883,0.990234,-0.067383
102624,1939-0,35309
102624,,,,-0.002930,0.975586,-0.072266
102634,,,,0.005859,0.984375,-0.050781
102644,1940-0,35310
102645,,,,-0.001953,0.978516,-0.057617
102655,,,,-0.000977,0.963867,-0.051758
102665,1938-0,35313
102665,,,,-0.001953,0.954102,-0.036133
102676,,,,-0.006836,0.948242,-0.020508
102685,1940-0,35316
102686,,,,-0.010742,0.934570,-0.020508
102696,,,,-0.010742,0.924805,-0.031250
102706,1938-0,35320
102706,,,,-0.011719,0.930664,-0.029297
102717,,,,-0.008789,0.954102,-0.031250
102727,1939-0,35325
102727,,,,-0.008789,0.971680,-0.034180
102737,,,,-0.000977,0.981445,-0.042969
102747,1939-0,35330
102747,,,,0.002930,0.987305,-0.041992
102758,,,,0.008789,0.987305,-0.028320
102768,1942-0,35337
102768,,,,0.022461,0.998047,-0.022461
102778,,,,0.033203,1.005859,-0.018555
102788,1938-0,35346
102788,,,,0.036133,1.011719,-0.032227
102799,,,,0.033203,1.026367,-0.040039
102809,1939-0,35358
102809,,,,0.027344,1.043945,-0.035156
102819,,,,0.018555,1.045898,-0.034180
102829,1938-0,35370
102829,,,,0.016602,1.026367,-0.041016
102840,,,,0.020508,1.002930,-0.041016
102850,1940-0,35375
102850,,,,0.026367,0.985352,-0.049805
102860,,,,0.031250,0.974609,-0.055664
102870,1938-0,35382
102871,,,,0.027344,0.966797,-0.074219
102881,,,,0.025391,0.970703,-0.079102
102891,1940-0,35391
102891,,,,0.021484,0.969727,-0.073242
102901,,,,0.017578,0.972656,-0.055664
102911,1939-0,35403
102912,,,,0.012695,0.981445,-0.033203
102922,,,,0.008789,0.986328,-0.006836
102932,1939-0,35416
102932,,,,-0.000977,0.990234,0.005859
102942,,,,-0.016602,0.987305,0.005859
102952,1938-0,35422
102953,,,,-0.010742,1.000000,0.007813
102963,,,,-0.009766,1.014648,0.002930
102973,1941-0,35428
102973,,,,-0.007813,1.032227,-0.016602
102983,,,,-0.000977,1.028320,-0.052734
102993,1941-0,35434
102994,,,,0.014648,1.014648,-0.086914
103004,,,,0.032227,1.008789,-0.101563
103014,1936-0,35438
103014,,,,0.033203,1.007813,-0.102539
103024,,,,0.033203,1.010742,-0.075195
103034,1939-0,35440
103035,,,,0.027344,1.019531,-0.045898
103045,,,,0.020508,1.020508,-0.044922
103055,1937-0,35446
103055,,,,0.015625,1.005859,-0.056641
103065,,,,0.013672,0.992188,-0.077148
103075,1939-0,35452
103076,,,,0.014648,0.980469,-0.083984
103086,,,,0.017578,0.983398,-0.089844
103096,1940-0,35449
103096,,,,0.020508,0.992188,-0.091797
103107,,,,0.023438,0.998047,-0.095703
103116,1936-0,35447
103117,,,,0.023438,0.999023,-0.097656
103127,,,,0.022461,0.998047,-0.083008
103137,1938-0,35446
103137,,,,0.023438,0.998047,-0.064453
103148,,,,0.015625,0.996094,-0.052734
103158,1940-0,35448
103158,,,,0.013672,0.996094,-0.041992
103168,,,,0.013672,0.990234,-0.031250
103178,1939-0,35452
103178,,,,0.015625,0.989258,-0.024414
103189,,,,0.016602,0.987305,-0.021484
103199,1939-0,35454
103199,,,,0.022461,0.987305,-0.028320
103209,,,,0.019531,0.991211,-0.042969
103219,1940-0,35456
103219,,,,0.014648,0.994141,-0.052734
103230,,,,0.012695,0.997070,-0.044922
103240,1939-0,35458
103240,,,,0.012695,0.998047,-0.030273
103250,,,,0.014648,0.994141,-0.025391
103260,1935-0,35460
103260,,,,0.013672,0.990234,-0.027344
103271,,,,0.015625,0.986328,-0.029297
103281,1939-0,35465
103281,,,,0.009766,0.988281,-0.030273
103291,,,,0.012695,0.990234,-0.029297
103301,1936-0,35471
103302,,,,0.010742,0.993164,-0.025391
103312,,,,0.008789,0.995117,-0.027344
103322,1936-0,35474
103322,,,,0.008789,0.997070,-0.027344
103332,,,,0.007813,0.997070,-0.027344
103342,1936-0,35476
103343,,,,0.008789,0.999023,-0.023438
103353,,,,0.006836,0.998047,-0.027344
103363,1939-0,35481
103363,,,,0.007813,1.000000,-0.024414
103373,,,,0.010742,1.000000,-0.016602
103383,1937-0,35486
103384,,,,0.010742,0.998047,-0.012695
103394,,,,0.006836,0.996094,-0.010742
103404,1940-0,35488
103404,,,,0.005859,0.995117,-0.011719
103414,,,,0.003906,0.994141,-0.018555
103424,1938-0,35489
103425,,,,0.004883,0.993164,-0.018555
103435,,,,0.004883,0.994141,-0.013672
103445,1937-0,35488
103445,,,,0.005859,0.996094,-0.012695
103455,,,,0.009766,0.997070,-0.005859
103465,1937-0,35488
103466,,,,0.006836,0.994141,-0.005859
103476,,,,0.001953,0.993164,0.000977
103486,1938-0,35490
103486,,,,0.005859,0.997070,-0.007813
103497,,,,0.002930,1.000000,0.001953
103506,1935-0,35492
103507,,,,0.002930,1.001953,0.006836
103517,,,,0.004883,0.998047,0.000977
103527,1936-0,35492
103527,,,,0.000977,0.997070,-0.007813
103538,,,,0.001953,0.997070,0.008789
103548,1938-0,35493
103548,,,,0.007813,0.996094,-0.003906
103558,,,,0.005859,0.996094,-0.016602
103568,1937-0,35494
103568,,,,0.001953,0.998047,-0.017578
103579,,,,-0.001953,0.998047,-0.008789
103589,1937-0,35494
103589,,,,-0.005859,0.998047,-0.004883
103599,,,,0.000977,0.993164,-0.016602
103609,1939-0,35491
103609,,,,0.001953,0.992188,-0.004883
103620,,,,-0.000977,0.994141,0.011719
103630,1938-0,35490
103630,,,,0.000977,0.993164,0.013672
103640,,,,0.000000,0.991211,0.008789
103650,1937-0,35497
103650,,,,0.001953,0.980469,0.000000
103661,,,,0.005859,0.978516,-0.016602
103671,1937-0,35502
103671,,,,0.006836,0.985352,-0.015625
103681,,,,0.005859,0.999023,0.000977
103691,1937-0,35501
103692,,,,0.004883,1.000977,0.000977
103702,,,,0.002930,1.000000,-0.000977
103712,1938-0,35502
103712,,,,0.000977,0.998047,-0.015625
103722,,,,0.001953,0.992188,-0.018555
103732,1938-0,35501
103733,,,,-0.000977,0.994141,-0.012695
103743,,,,-0.001953,0.995117,0.002930
103753,1941-0,35501
103753,,,,-0.000977,0.992188,0.004883
103763,,,,-0.000977,0.992188,0.000000
103773,1935-0,35500
103774,,,,0.000977,0.986328,-0.008789
103784,,,,0.000977,0.987305,-0.010742
103794,1940-0,35500
103794,,,,0.002930,0.988281,-0.003906
103804,,,,0.002930,0.991211,0.000000
103814,1938-0,35499
103815,,,,0.005859,0.995117,-0.004883
103825,,,,0.000977,0.989258,-0.003906
103835,1938-0,35498
103835,,,,0.006836,0.992188,-0.004883
103845,,,,0.001953,0.992188,-0.000977
103855,1937-0,35498
103856,,,,0.003906,0.991211,-0.005859
103866,,,,0.006836,0.992188,-0.010742
103876,1936-0,35497
103876,,,,0.005859,0.993164,-0.012695
103887,,,,0.003906,0.995117,-0.009766
103896,1938-0,35497
103897,,,,0.005859,0.997070,-0.003906
103907,,,,0.004883,1.000000,-0.006836
103917,1936-0,35497
103917,,,,0.003906,0.997070,-0.014648
103928,,,,0.003906,0.999023,-0.006836
103938,1938-0,35495
103938,,,,0.000977,0.998047,-0.003906
103948,,,,0.013672,0.998047,-0.013672
103958,1940-0,35491
103958,,,,0.009766,0.991211,-0.022461
103969,,,,0.007813,0.987305,-0.004883
103979,1936-0,35489
103979,,,,0.006836,0.990234,0.010742
103989,,,,0.005859,0.987305,0.004883
103999,1938-0,35490
103999,,,,0.005859,0.984375,0.006836
104010,,,,0.003906,0.986328,0.004883
104020,1937-0,35488
104020,,,,0.004883,0.992188,-0.002930
104030,,,,0.002930,0.998047,-0.002930
104040,1939-0,35485
104041,,,,0.005859,0.996094,-0.007813
104051,,,,0.007813,1.000000,-0.013672
104061,1937-0,35483
104061,,,,0.009766,1.000000,-0.011719
104071,,,,0.007813,1.000000,-0.012695
104081,1939-0,35481
104082,,,,0.006836,1.000977,-0.012695
104092,,,,0.005859,0.995117,-0.007813
104102,1941-0,35481
104102,,,,0.006836,0.993164,-0.008789
104112,,,,0.002930,0.993164,-0.011719
104122,1936-0,35479
104123,,,,0.004883,0.992188,-0.004883
104133,,,,0.002930,0.995117,-0.004883
104143,1937-0,35477
104143,,,,0.000000,0.994141,-0.003906
104153,,,,0.000000,0.991211,-0.003906
104163,1937-0,35475
104164,,,,0.002930,0.995117,-0.003906
104174,,,,0.004883,0.994141,-0.004883
104184,1936-0,35473
104184,,,,0.002930,0.992188,-0.005859
104194,,,,0.002930,0.995117,-0.005859
104204,1937-0,35473
104205,,,,0.005859,0.996094,-0.005859
104215,,,,0.002930,0.996094,0.001953
104225,1937-0,35472
104225,,,,0.001953,0.996094,-0.002930
104235,,,,0.003906,0.993164,-0.002930
104245,1937-0,35471
104246,,,,0.001953,0.992188,-0.000977
104256,,,,0.000977,0.993164,-0.005859
104266,1937-0,35471
104266,,,,0.003906,0.993164,-0.007813
104277,,,,0.002930,0.993164,-0.009766
104287,1940-0,35469
104287,,,,0.005859,0.992188,-0.007813
104297,,,,0.001953,0.994141,-0.009766
104307,1941-0,35469
104307,,,,0.005859,0.994141,-0.008789
104318,,,,0.008789,0.993164,-0.004883
104328,1940-0,35467
104328,,,,0.006836,0.994141,-0.005859
104338,,,,0.008789,0.993164,-0.007813
104348,1937-0,35465
104348,,,,0.007813,0.996094,0.000000
104359,,,,0.007813,0.991211,-0.003906
104369,1936-0,35464
104369,,,,0.004883,0.992188,-0.004883
104379,,,,0.006836,0.992188,-0.009766
104389,1937-0,35462
104389,,,,0.003906,0.994141,-0.003906
104400,,,,0.005859,0.995117,-0.003906
104410,1938-0,35461
104410,,,,0.008789,0.991211,-0.000977
104420,,,,0.010742,0.990234,0.000977
104430,1938-0,35459
104431,,,,0.010742,0.992188,0.000977
104441,,,,0.009766,0.992188,0.000000
104451,1938-0,35458
104451,,,,0.008789,0.994141,-0.014648
104461,,,,0.012695,0.993164,-0.013672
104471,1937-0,35457
104472,,,,0.011719,0.997070,-0.007813
104482,,,,0.013672,0.996094,-0.002930
104492,1936-0,35455
104492,,,,0.009766,0.993164,-0.006836
104502,,,,0.014648,0.989258,-0.012695
104512,1940-0,35455
104513,,,,0.012695,0.987305,0.008789
104523,,,,0.016602,0.987305,0.000000
104533,1937-0,35454
104533,,,,0.012695,0.980469,-0.015625
104543,,,,0.008789,0.994141,-0.011719
104553,1939-0,35455
104554,,,,0.007813,0.998047,-0.006836
104564,,,,0.004883,0.994141,-0.011719
104574,1940-0,35453
104574,,,,0.013672,0.988281,-0.019531
104584,,,,0.012695,0.986328,-0.015625
104594,1938-0,35454
104595,,,,0.012695,0.984375,0.004883
104605,,,,0.008789,0.987305,0.009766
104615,1939-0,35458
104615,,,,0.009766,0.989258,0.007813
104626,,,,0.011719,0.987305,0.007813
104636,1939-0,35465
104636,,,,0.012695,0.990234,-0.009766
104646,,,,0.011719,0.995117,-0.016602
104656,1940-0,35471
104656,,,,0.010742,1.007813,-0.008789
104667,,,,0.007813,1.008789,0.002930
104677,1943-0,35474
104677,,,,0.009766,1.004883,-0.013672
104687,,,,0.009766,1.000977,-0.015625
104697,1939-0,35477
104697,,,,0.010742,0.997070,-0.007813
104708,,,,0.007813,0.995117,0.002930
104718,1938-0,35480
104718,,,,0.008789,0.990234,0.001953
104728,,,,0.010742,0.983398,0.000977
104738,1936-0,35485
104738,,,,0.009766,0.978516,-0.010742
104749,,,,0.010742,0.977539,-0.013672
104759,1939-0,35489
104759,,,,0.010742,0.981445,-0.015625
104769,,,,0.010742,0.989258,-0.017578
104779,1939-0,35491
104780,,,,0.009766,0.991211,-0.021484
104790,,,,0.011719,0.998047,-0.013672
104800,1938-0,35491
104800,,,,0.009766,1.001953,-0.014648
104810,,,,0.006836,0.999023,-0.014648
104820,1939-0,35490
104821,,,,0.007813,0.995117,-0.009766
104831,,,,0.008789,0.994141,-0.010742
104841,1937-0,35490
104841,,,,0.001953,0.996094,-0.010742
104851,,,,0.001953,0.992188,-0.017578
104861,1937-0,35489
104862,,,,0.004883,0.989258,-0.015625
104872,,,,0.002930,0.985352,-0.014648
104882,1941-0,35487
104882,,,,0.007813,0.986328,-0.019531
104892,,,,0.009766,0.990234,-0.019531
104902,1940-0,35485
104923,1940-0,35481
104903,,,,0.005859,0.993164,-0.018555
104913,,,,0.010742,0.995117,-0.021484
104923,,,,0.009766,0.993164,-0.029297
104934,,,,0.005859,0.991211,-0.012695
104943,1936-0,35479
104944,,,,0.001953,0.990234,-0.006836
104954,,,,0.000000,0.988281,-0.009766
104964,1941-0,35477
104964,,,,0.004883,0.984375,-0.017578
104975,,,,0.012695,0.988281,-0.016602
104985,1938-0,35477
104985,,,,0.015625,0.995117,-0.012695
104995,,,,0.017578,0.999023,-0.017578
105005,1937-0,35476
105005,,,,0.021484,0.996094,-0.017578
105016,,,,0.024414,0.994141,-0.016602
105026,1940-0,35475
105026,,,,0.024414,0.993164,-0.019531
105036,,,,0.025391,0.990234,-0.015625
105046,1939-0,35475
105046,,,,0.028320,0.992188,-0.014648
105057,,,,0.022461,0.990234,-0.012695
105067,1941-0,35475
105067,,,,0.017578,0.993164,-0.011719
105077,,,,0.011719,0.998047,-0.007813
105087,1938-0,35474
105087,,,,0.007813,0.997070,-0.011719
105098,,,,0.004883,1.000000,-0.011719
105108,1936-0,35474
105108,,,,0.005859,1.000977,-0.011719
105118,,,,0.009766,1.001953,0.000977
105128,1938-0,35473
105129,,,,0.010742,0.998047,0.003906
105139,,,,0.012695,0.998047,0.000977
105149,1936-0,35473
105149,,,,0.015625,0.995117,0.001953
105159,,,,0.015625,0.994141,-0.002930
105169,1937-0,35473
105170,,,,0.013672,0.994141,0.000977
105180,,,,0.011719,0.994141,-0.009766
105190,1938-0,35473
105190,,,,0.013672,0.994141,-0.004883
105200,,,,0.010742,0.994141,-0.012695
105210,1939-0,35473
105211,,,,0.011719,0.993164,-0.012695
105221,,,,0.005859,0.995117,-0.008789
105231,1940-0,35471
105231,,,,0.008789,0.997070,-0.012695
105241,,,,0.008789,0.993164,-0.013672
105251,1938-0,35470
105252,,,,0.008789,0.990234,-0.010742
105262,,,,0.010742,0.992188,-0.007813
105272,1938-0,35469
105272,,,,0.009766,0.986328,-0.010742
105282,,,,0.008789,0.986328,-0.012695
105292,1939-0,35469
105293,,,,0.008789,0.987305,-0.010742
105303,,,,0.013672,0.983398,-0.005859
105313,1938-0,35468
105313,,,,0.010742,0.984375,-0.005859
105324,,,,0.013672,0.974609,-0.012695
105333,1938-0,35468
105334,,,,0.012695,0.972656,-0.010742
105344,,,,0.014648,0.977539,-0.011719
105354,1939-0,35468
105354,,,,0.009766,0.989258,-0.013672
105365,,,,0.007813,0.996094,-0.019531
105375,1938-0,35470
105375,,,,0.003906,0.997070,-0.024414
105385,,,,0.000977,0.998047,-0.027344
105395,1936-0,35476
105395,,,,0.000000,0.999023,-0.040039
105406,,,,0.001953,1.000000,-0.045898
105416,1937-0,35487
105416,,,,0.000977,0.999023,-0.044922
105426,,,,-0.002930,0.994141,-0.049805
105436,1940-0,35495
105436,,,,-0.005859,0.990234,-0.059570
105447,,,,-0.013672,0.993164,-0.059570
105457,1938-0,35500
105457,,,,-0.024414,0.994141,-0.055664
105467,,,,-0.031250,0.995117,-0.049805
105477,1936-0,35505
105478,,,,-0.032227,0.994141,-0.042969
105488,,,,-0.032227,0.994141,-0.036133
105498,1937-0,35508
105498,,,,-0.026367,0.988281,-0.036133
105508,,,,-0.025391,0.982422,-0.027344
105518,1937-0,35512
105519,,,,-0.025391,0.975586,-0.009766
105529,,,,-0.017578,0.968750,-0.027344
105539,1938-0,35514
105539,,,,-0.018555,0.956055,-0.034180
105549,,,,-0.026367,0.963867,-0.026367
105559,1937-0,35516
105560,,,,-0.025391,0.969727,-0.016602
105570,,,,-0.028320,0.959961,-0.009766
105580,1939-0,35512
105580,,,,-0.020508,0.952148,-0.011719
105590,,,,-0.012695,0.941406,-0.010742
105600,1936-0,35506
105601,,,,-0.003906,0.935547,0.001953
105611,,,,-0.000977,0.936523,0.007813
105621,1936-0,35503
105621,,,,0.007813,0.938477,0.005859
105631,,,,0.018555,0.933594,0.002930
105641,1939-0,35501
105642,,,,0.032227,0.933594,-0.011719
105652,,,,0.039063,0.941406,-0.029297
105662,1937-0,35499
105662,,,,0.043945,0.971680,-0.028320
105673,,,,0.049805,1.024414,-0.003906
105682,1935-0,35497
105683,,,,0.049805,1.082031,0.009766
105693,,,,0.058594,1.104492,0.015625
105703,1937-0,35501
105703,,,,0.064453,1.096680,0.009766
105714,,,,0.077148,1.052734,0.001953
105724,1935-0,35512
105724,,,,0.089844,1.018555,0.014648
105734,,,,0.095703,1.009766,0.032227
105744,1939-0,35508
105744,,,,0.092773,1.017578,0.041992
105755,,,,0.084961,1.022461,0.026367
105765,1938-0,35505
105765,,,,0.065430,1.037109,-0.015625
105775,,,,0.044922,1.064453,-0.042969
105785,1938-0,35503
105785,,,,0.029297,1.106445,-0.053711
105796,,,,0.019531,1.123047,-0.052734
105806,1935-0,35499
105806,,,,0.027344,1.096680,-0.036133
105816,,,,0.041016,1.021484,-0.029297
105826,1937-0,35494
105827,,,,0.066406,0.953125,-0.030273
105837,,,,0.085938,0.907227,0.003906
105847,1939-0,35491
105847,,,,0.114258,0.889648,0.031250
105857,,,,0.119141,0.881836,0.039063
105867,1937-0,35489
105868,,,,0.128906,0.878906,0.049805
105878,,,,0.129883,0.878906,0.034180
105888,1937-0,35490
105888,,,,0.122070,0.898438,0.020508
105898,,,,0.104492,0.958008,0.018555
105908,1935-0,35489
105909,,,,0.103516,1.019531,0.024414
105919,,,,0.076172,1.065430,0.033203
105929,1937-0,35486
105929,,,,0.024414,1.154297,0.018555
105939,,,,-0.039063,1.226563,0.020508
105949,1937-0,35481
105950,,,,-0.090820,1.258789,0.030273
105960,,,,-0.104492,1.238281,0.041016
105970,,,,-0.094727,1.139648,0.060547
105980,,,,-0.089844,1.020508,0.068359
105970,1944-0,35481
105990,1944-0,35476
105991,,,,-0.076172,0.942383,0.056641
106001,,,,-0.045898,0.919922,0.037109
106011,1943-0,35470
106011,,,,-0.009766,0.921875,0.022461
106022,,,,0.011719,0.923828,0.000977
106032,1944-0,35467
106032,,,,0.030273,0.924805,-0.029297
106042,,,,0.037109,0.939453,-0.037109
106052,1943-0,35466
106052,,,,0.037109,0.971680,-0.017578
106063,,,,0.020508,0.992188,0.013672
106073,1942-0,35470
106073,,,,0.005859,0.997070,0.029297
106083,,,,-0.011719,0.971680,0.033203
106093,1942-0,35472
106093,,,,-0.040039,0.948242,0.043945
106104,,,,-0.055664,0.937500,0.064453
106114,1945-0,35474
106114,,,,-0.063477,0.942383,0.074219
106124,,,,-0.055664,0.950195,0.079102
106134,1942-0,35476
106134,,,,-0.034180,0.963867,0.069336
106145,,,,-0.016602,0.975586,0.056641
106155,1944-0,35475
106155,,,,0.000977,0.975586,0.035156
106165,,,,0.012695,0.984375,0.020508
106175,1946-0,35472
106176,,,,0.018555,0.993164,0.008789
106186,,,,0.020508,0.997070,0.001953
106196,1944-0,35472
106196,,,,0.016602,0.991211,-0.004883
106206,,,,0.015625,0.980469,-0.005859
106216,1942-0,35474
106217,,,,0.020508,0.981445,0.003906
106227,,,,0.021484,0.982422,0.008789
106237,1942-0,35476
106237,,,,0.023438,0.990234,0.024414
106247,,,,0.021484,0.993164,0.027344
106257,1943-0,35479
106258,,,,0.022461,0.991211,0.023438
106268,,,,0.016602,0.997070,0.026367
106278,1942-0,35480
106278,,,,0.011719,0.996094,0.022461
106288,,,,0.003906,0.998047,0.017578
106298,1940-0,35479
106299,,,,0.001953,0.995117,0.012695
106309,,,,0.004883,0.991211,0.000977
106319,1941-0,35479
106319,,,,0.006836,0.989258,0.004883
106329,,,,0.015625,0.992188,0.005859
106339,1943-0,35478
106340,,,,0.020508,0.990234,0.004883
106350,,,,0.029297,0.993164,0.013672
106360,1944-0,35478
106360,,,,0.031250,0.994141,0.017578
106371,,,,0.033203,0.990234,0.021484
106380,1942-0,35480
106381,,,,0.039063,0.992188,0.029297
106391,,,,0.045898,0.993164,0.029297
106401,1945-0,35482
106401,,,,0.045898,0.997070,0.021484
106412,,,,0.043945,0.998047,0.017578
106422,1944-0,35484
106422,,,,0.035156,1.001953,0.013672
106432,,,,0.036133,1.004883,0.021484
106442,1945-0,35484
106442,,,,0.032227,0.999023,0.019531
106453,,,,0.030273,0.992188,0.014648
106463,1944-0,35484
106463,,,,0.025391,0.989258,0.013672
106473,,,,0.027344,0.992188,0.016602
106483,1943-0,35486
106483,,,,0.016602,0.992188,0.029297
106494,,,,0.022461,0.992188,0.019531
106504,1944-0,35488
106504,,,,0.022461,0.986328,0.005859
106514,,,,0.008789,1.000000,0.007813
106524,1946-0,35490
106525,,,,0.008789,1.012695,0.009766
106535,,,,0.012695,1.010742,0.023438
106545,1943-0,35491
106545,,,,0.014648,1.000977,-0.004883
106555,,,,0.023438,0.991211,-0.019531
106565,1943-0,35492
106566,,,,0.024414,1.000000,0.018555
106576,,,,0.025391,1.000977,0.028320
106586,1943-0,35497
106586,,,,0.030273,0.992188,0.021484
106596,,,,0.031250,0.983398,0.008789
106606,1945-0,35506
106607,,,,0.030273,0.975586,0.005859
106617,,,,0.032227,0.981445,0.011719
106627,1943-0,35515
106627,,,,0.028320,0.981445,0.012695
106637,,,,0.022461,0.980469,0.005859
106647,1942-0,35518
106648,,,,0.019531,0.982422,-0.002930
106658,,,,0.015625,0.990234,-0.012695
106668,1943-0,35520
106668,,,,0.015625,0.998047,-0.012695
106678,,,,0.012695,1.000000,-0.001953
106688,1946-0,35524
106689,,,,0.005859,0.994141,-0.002930
106699,,,,0.011719,0.989258,-0.005859
106709,1940-0,35526
106709,,,,0.013672,0.990234,-0.009766
106719,,,,0.013672,0.989258,-0.014648
106729,1944-0,35527
106730,,,,0.015625,0.993164,-0.017578
106740,,,,0.013672,1.001953,-0.015625
106750,1943-0,35528
106750,,,,0.004883,1.006836,-0.007813
106761,,,,-0.000977,0.999023,0.000977
106771,1943-0,35533
106771,,,,-0.008789,0.987305,0.001953
106781,,,,-0.008789,0.980469,0.000000
106791,1943-0,35538
106791,,,,-0.005859,0.981445,0.016602
106802,,,,-0.007813,0.993164,0.037109
106812,1944-0,35538
106812,,,,-0.013672,0.992188,0.055664
106822,,,,-0.023438,0.978516,0.055664
106832,1944-0,35541
106832,,,,-0.038086,0.972656,0.033203
106843,,,,-0.039063,0.983398,0.021484
106853,1941-0,35536
106853,,,,-0.044922,0.999023,0.010742
106863,,,,-0.053711,1.006836,0.024414
106873,1944-0,35533
106874,,,,-0.056641,1.011719,0.025391
106884,,,,-0.056641,0.997070,0.017578
106894,1943-0,35534
106894,,,,-0.054688,0.980469,0.006836
106904,,,,-0.052734,0.982422,-0.000977
106914,1941-0,35534
106915,,,,-0.048828,0.987305,0.005859
106925,,,,-0.045898,0.993164,0.013672
106935,1944-0,35534
106935,,,,-0.040039,1.000977,0.016602
106945,,,,-0.034180,1.000000,0.032227
106955,1940-0,35538
106956,,,,-0.019531,1.001953,0.057617
106966,,,,0.006836,1.000977,0.077148
106976,1941-0,35546
106976,,,,0.040039,0.994141,0.110352
106986,,,,0.073242,0.977539,0.133789
106996,1943-0,35558
106997,,,,0.111328,0.956055,0.139648
107007,,,,0.144531,0.938477,0.145508
107017,1945-0,35569
107017,,,,0.169922,0.919922,0.147461
107027,,,,0.192383,0.901367,0.146484
107037,1947-0,35571
107038,,,,0.193359,0.886719,0.124023
107048,,,,0.162109,0.875977,0.087891
107058,1946-0,35561
107058,,,,0.111328,0.891602,0.022461
107069,,,,0.059570,0.938477,-0.055664
107078,1946-0,35556
107079,,,,0.023438,1.020508,-0.132813
107089,,,,-0.015625,1.120117,-0.170898
107099,1944-0,35565
107099,,,,-0.048828,1.190430,-0.168945
107110,,,,-0.074219,1.214844,-0.153320
107120,1944-0,35564
107120,,,,-0.071289,1.193359,-0.112305
107130,,,,-0.002930,1.136719,-0.043945
107140,1942-0,35558
107140,,,,0.074219,1.081055,0.006836
107151,,,,0.148438,1.021484,-0.009766
107161,1944-0,35560
107161,,,,0.193359,0.984375,-0.011719
107171,,,,0.192383,0.966797,-0.004883
107181,1943-0,35564
107181,,,,0.166992,0.963867,0.002930
107192,,,,0.142578,0.958008,-0.015625
107202,1943-0,35564
107202,,,,0.109375,0.940430,-0.041992
107212,,,,0.084961,0.938477,-0.038086
107222,1942-0,35554
107223,,,,0.071289,0.950195,-0.012695
107233,,,,0.056641,0.972656,0.000977
107243,1945-0,35546
107243,,,,0.044922,0.989258,-0.011719
107253,,,,0.035156,0.988281,-0.031250
107263,1945-0,35538
107264,,,,0.031250,0.989258,-0.071289
107274,,,,0.029297,0.989258,-0.086914
107284,1944-0,35530
107284,,,,0.022461,0.981445,-0.101563
107294,,,,0.010742,0.978516,-0.115234
107304,1942-0,35525
107305,,,,-0.000977,0.981445,-0.101563
107315,,,,-0.006836,0.981445,-0.084961
107325,1943-0,35523
107325,,,,-0.010742,0.979492,-0.071289
107335,,,,-0.000977,0.977539,-0.067383
107345,1945-0,35519
107346,,,,0.022461,0.968750,-0.066406
107356,,,,0.051758,0.973633,-0.099609
107366,1944-0,35520
107366,,,,0.093750,0.981445,-0.147461
107376,,,,0.117188,0.981445,-0.176758
107386,1946-0,35524
107387,,,,0.136719,0.976563,-0.201172
107397,,,,0.133789,0.959961,-0.208984
107407,1945-0,35525
107407,,,,0.097656,0.984375,-0.198242
107418,,,,0.073242,1.011719,-0.121094
107427,1944-0,35525
107428,,,,0.119141,1.003906,-0.004883
107438,,,,0.174805,1.000000,0.082031
107448,1943-0,35538
107448,,,,0.233398,0.999023,0.189453
107459,,,,0.231445,0.958984,0.296875
107469,1944-0,35538
107469,,,,0.167969,0.884766,0.301758
107479,,,,0.078125,0.860352,0.182617
107489,1943-0,35526
107489,,,,0.029297,0.896484,0.025391
107500,,,,0.012695,0.982422,-0.089844
107510,1943-0,35524
107510,,,,0.003906,1.122070,-0.149414
107520,,,,-0.025391,1.250000,-0.193359
107530,1944-0,35526
107530,,,,-0.065430,1.292969,-0.189453
107541,,,,-0.104492,1.262695,-0.152344
107551,1947-0,35517
107551,,,,-0.123047,1.205078,-0.087891
107561,,,,-0.130859,1.142578,-0.028320
107571,1942-0,35508
107572,,,,-0.136719,1.069336,0.023438
107582,,,,-0.131836,0.996094,0.056641
107592,1942-0,35505
107592,,,,-0.119141,0.925781,0.065430
107602,,,,-0.092773,0.882813,0.050781
107612,1944-0,35501
107613,,,,-0.049805,0.889648,0.012695
107623,,,,-0.025391,0.943359,-0.000977
107633,1941-0,35501
107633,,,,-0.016602,0.986328,0.029297
107643,,,,-0.016602,0.995117,0.036133
107653,1943-0,35499
107654,,,,-0.000977,0.973633,0.033203
107664,,,,0.021484,0.946289,0.016602
107674,1944-0,35498
107674,,,,0.053711,0.938477,-0.000977
107684,,,,0.069336,0.926758,-0.015625
107694,1944-0,35499
107695,,,,0.078125,0.910156,-0.020508
107705,,,,0.083984,0.886719,-0.037109
107715,1944-0,35498
107715,,,,0.079102,0.852539,-0.045898
107725,,,,0.078125,0.856445,-0.058594
107735,1944-0,35498
107736,,,,0.062500,0.885742,-0.052734
107746,,,,0.046875,0.925781,-0.041992
107756,1945-0,35499
107756,,,,0.022461,0.933594,-0.037109
107767,,,,0.001953,0.924805,-0.075195
107776,1946-0,35496
107777,,,,-0.041992,0.943359,-0.090820
107787,,,,-0.081055,0.962891,-0.051758
107797,1944-0,35491
107797,,,,-0.091797,0.988281,-0.049805
107808,,,,-0.094727,0.985352,-0.051758
107818,1945-0,35488
107818,,,,-0.092773,0.971680,-0.047852
107828,,,,-0.088867,0.968750,-0.033203
107838,1941-0,35487
107838,,,,-0.077148,0.975586,-0.026367
107849,,,,-0.058594,0.978516,-0.028320
107859,1944-0,35487
107859,,,,-0.037109,0.987305,-0.037109
107869,,,,-0.010742,1.000977,-0.040039
107879,1943-0,35486
107879,,,,0.002930,1.014648,-0.034180
107890,,,,0.015625,1.018555,-0.022461
107900,1942-0,35488
107900,,,,0.023438,1.018555,-0.020508
107910,,,,0.027344,1.014648,-0.020508
107920,1943-0,35488
107921,,,,0.030273,1.019531,-0.005859
107931,,,,0.022461,1.024414,-0.012695
107941,1944-0,35487
107941,,,,0.009766,1.041992,-0.027344
107951,,,,0.000000,1.041016,-0.032227
107961,1947-0,35485
107962,,,,-0.018555,1.051758,-0.039063
107972,,,,-0.038086,1.065430,-0.048828
107982,1944-0,35484
107982,,,,-0.052734,1.081055,-0.054688
107992,,,,-0.075195,1.082031,-0.054688
108002,1943-0,35483
108003,,,,-0.090820,1.082031,-0.055664
108013,,,,-0.087891,1.070313,-0.068359
108023,1944-0,35481
108023,,,,-0.083008,1.061523,-0.073242
108033,,,,-0.073242,1.053711,-0.079102
108043,1941-0,35479
108044,,,,-0.041992,1.056641,-0.097656
108054,,,,-0.034180,1.086914,-0.104492
108064,1943-0,35477
108064,,,,-0.025391,1.098633,-0.068359
108074,,,,0.002930,1.120117,-0.074219
108084,1943-0,35476
108085,,,,0.018555,1.134766,-0.053711
108095,,,,0.007813,1.102539,0.058594
108105,1947-0,35476
108105,,,,0.019531,1.071289,0.083008
108115,,,,0.046875,1.050781,0.071289
108125,1949-0,35479
108126,,,,0.055664,1.020508,0.121094
108136,,,,0.039063,1.003906,0.173828
108146,1945-0,35485
108146,,,,0.036133,0.984375,0.177734
108157,,,,0.029297,0.919922,0.175781
108167,1944-0,35489
108167,,,,0.046875,0.857422,0.126953
108177,,,,0.080078,0.826172,0.066406
108187,1947-0,35492
108187,,,,0.112305,0.833984,0.030273
108198,,,,0.134766,0.881836,0.041992
108208,1945-0,35494
108208,,,,0.156250,0.920898,0.056641
108218,,,,0.159180,0.944336,0.056641
108228,1944-0,35495
108228,,,,0.136719,0.970703,0.061523
108239,,,,0.114258,1.005859,0.085938
108249,1945-0,35494
108249,,,,0.073242,1.052734,0.103516
108259,,,,0.015625,1.125977,0.108398
108269,1944-0,35493
108269,,,,-0.041992,1.175781,0.100586
108280,,,,-0.083984,1.181641,0.119141
108290,1945-0,35489
108290,,,,-0.091797,1.152344,0.132813
108300,,,,-0.074219,1.095703,0.115234
108310,1943-0,35485
108311,,,,-0.042969,1.015625,0.079102
108321,,,,-0.025391,0.972656,0.047852
108331,,,,0.007813,0.937500,0.024414
108331,1947-0,35481
108341,,,,0.044922,0.922852,-0.025391
108351,1947-0,35481
108352,,,,0.080078,0.898438,-0.035156
108362,,,,0.112305,0.892578,-0.048828
108372,1942-0,35482
108372,,,,0.125977,0.884766,-0.051758
108382,,,,0.122070,0.875000,-0.053711
108392,1945-0,35482
108393,,,,0.114258,0.868164,-0.037109
108403,,,,0.095703,0.881836,-0.019531
108413,1943-0,35482
108413,,,,0.078125,0.897461,0.005859
108423,,,,0.052734,0.896484,0.001953
108433,1947-0,35486
108434,,,,0.037109,0.894531,-0.028320
108444,,,,0.030273,0.891602,-0.040039
108454,1943-0,35491
108454,,,,0.032227,0.895508,-0.045898
108464,,,,0.036133,0.906250,-0.050781
108474,1943-0,35495
108475,,,,0.037109,0.914063,-0.054688
108485,,,,0.042969,0.906250,-0.068359
108495,1944-0,35496
108495,,,,0.052734,0.899414,-0.077148
108506,,,,0.053711,0.898438,-0.080078
108516,1946-0,35495
108516,,,,0.034180,0.893555,-0.061523
108526,,,,0.017578,0.893555,-0.064453
108536,1945-0,35493
108536,,,,-0.000977,0.911133,-0.082031
108547,,,,-0.023438,0.947266,-0.090820
108557,1945-0,35489
108557,,,,-0.034180,0.992188,-0.084961
108567,,,,-0.018555,1.022461,-0.051758
108577,1942-0,35486
108577,,,,0.023438,1.044922,-0.008789
108588,,,,0.071289,1.040039,0.037109
108598,1946-0,35486
108598,,,,0.131836,1.027344,0.053711
108608,,,,0.178711,1.043945,0.010742
108618,1946-0,35484
108619,,,,0.179688,1.061523,-0.038086
108629,,,,0.118164,1.087891,-0.095703
108639,1943-0,35483
108639,,,,0.037109,1.139648,-0.203125
108649,,,,-0.083984,1.206055,-0.265625
108659,1943-0,35492
108660,,,,-0.157227,1.211914,-0.172852
108670,,,,-0.160156,1.179688,-0.072266
108680,1946-0,35497
108680,,,,-0.109375,1.091797,-0.013672
108690,,,,-0.077148,0.998047,0.013672
108700,1943-0,35507
108701,,,,-0.040039,0.924805,0.077148
108711,,,,-0.026367,0.910156,0.185547
108721,1944-0,35533
108721,,,,-0.027344,0.948242,0.295898
108731,,,,-0.000977,1.008789,0.352539
108741,1942-0,35543
108742,,,,0.014648,1.096680,0.303711
108752,,,,0.033203,1.149414,0.250977
108762,1942-0,35532
108762,,,,0.044922,1.190430,0.220703
108772,,,,0.039063,1.236328,0.192383
108782,1946-0,35535
108783,,,,0.078125,1.283203,0.136719
108793,,,,0.127930,1.294922,0.086914
108803,1947-0,35551
108803,,,,0.135742,1.283203,0.060547
108814,,,,0.119141,1.229492,0.089844
108823,1945-0,35544
108824,,,,0.088867,1.154297,0.100586
108834,,,,0.060547,1.051758,0.053711
108844,1947-0,35535
108844,,,,0.043945,0.988281,-0.011719
108855,,,,0.030273,0.936523,-0.044922
108865,1945-0,35535
108865,,,,0.021484,0.916992,-0.069336
108875,,,,0.006836,0.901367,-0.066406
108885,1946-0,35536
108885,,,,-0.001953,0.859375,-0.050781
108896,,,,-0.003906,0.811523,-0.041992
108906,1944-0,35542
108906,,,,-0.010742,0.768555,-0.042969
108916,,,,-0.009766,0.735352,-0.036133
108926,1946-0,35548
108926,,,,-0.018555,0.727539,-0.034180
108937,,,,-0.022461,0.723633,-0.034180
108947,1946-0,35544
108947,,,,-0.029297,0.742188,-0.035156
108957,,,,-0.027344,0.771484,-0.041016
108967,1945-0,35539
108968,,,,-0.024414,0.798828,-0.045898
108978,,,,-0.009766,0.805664,-0.040039
108988,1949-0,35538
108988,,,,-0.003906,0.823242,-0.064453
108998,,,,0.004883,0.853516,-0.065430
109008,1945-0,35540
109009,,,,0.015625,0.877930,-0.058594
109019,,,,0.025391,0.896484,-0.059570
109029,1946-0,35542
109029,,,,0.031250,0.906250,-0.076172
109039,,,,0.036133,0.909180,-0.057617
109049,1946-0,35542
109050,,,,0.046875,0.903320,-0.041016
109060,,,,0.041992,0.887695,-0.039063
109070,1945-0,35544
109070,,,,0.035156,0.880859,-0.043945
109080,,,,0.023438,0.907227,-0.040039
109090,1942-0,35543
109091,,,,0.005859,0.961914,-0.021484
109101,,,,-0.019531,1.041016,-0.011719
109111,1944-0,35539
109111,,,,-0.035156,1.103516,-0.003906
109121,,,,-0.067383,1.134766,-0.021484
109131,1944-0,35537
109132,,,,-0.082031,1.158203,-0.065430
109142,,,,-0.093750,1.184570,-0.089844
109152,1943-0,35535
109152,,,,-0.092773,1.209961,-0.110352
109163,,,,-0.082031,1.222656,-0.120117
109173,1944-0,35530
109173,,,,-0.060547,1.220703,-0.143555
109183,,,,-0.025391,1.210938,-0.175781
109193,1946-0,35531
109193,,,,0.020508,1.207031,-0.217773
109204,,,,0.072266,1.188477,-0.236328
109214,1946-0,35545
109214,,,,0.146484,1.181641,-0.250000
109224,,,,0.214844,1.196289,-0.257813
109234,1947-0,35550
109234,,,,0.208008,1.172852,-0.151367
109245,,,,0.163086,1.133789,-0.057617
109255,1948-0,35546
109255,,,,0.099609,1.093750,0.023438
109265,,,,0.017578,1.045898,0.119141
109275,1947-0,35553
109275,,,,-0.025391,0.988281,0.231445
109286,,,,-0.039063,0.948242,0.329102
109296,1942-0,35565
109296,,,,-0.051758,0.923828,0.367188
109306,,,,-0.052734,0.905273,0.376953
109316,1944-0,35560
109317,,,,-0.041992,0.901367,0.354492
109327,,,,0.004883,0.916992,0.309570
109337,1946-0,35548
109337,,,,0.072266,0.945313,0.228516
109347,,,,0.137695,1.006836,0.111328
109357,1949-0,35544
109358,,,,0.163086,1.106445,0.002930
109368,,,,0.154297,1.189453,-0.021484
109378,1944-0,35536
109378,,,,0.116211,1.230469,-0.002930
109388,,,,0.078125,1.248047,0.002930
109398,1945-0,35523
109399,,,,0.035156,1.240234,0.053711
109409,,,,0.003906,1.203125,0.101563
109419,1945-0,35513
109419,,,,-0.021484,1.117188,0.098633
109429,,,,-0.020508,1.015625,0.057617
109439,1944-0,35511
109440,,,,-0.023438,0.934570,0.044922
109450,,,,-0.031250,0.868164,0.054688
109460,1944-0,35512
109460,,,,-0.052734,0.840820,0.013672
109470,,,,-0.030273,0.793945,-0.000977
109480,1946-0,35514
109481,,,,-0.015625,0.762695,-0.020508
109491,,,,0.003906,0.732422,-0.031250
109501,1946-0,35516
109501,,,,0.010742,0.715820,-0.029297
109512,,,,0.032227,0.726563,-0.027344
109522,1945-0,35515
109522,,,,0.057617,0.745117,-0.021484
109532,,,,0.071289,0.783203,-0.027344
109542,1947-0,35516
109542,,,,0.081055,0.822266,-0.021484
109553,,,,0.074219,0.853516,0.000000
109563,1945-0,35516
109563,,,,0.060547,0.875000,0.000977
109573,,,,0.030273,0.863281,-0.020508
109583,1946-0,35513
109583,,,,0.034180,0.854492,-0.052734
109594,,,,0.035156,0.845703,-0.072266
109604,1948-0,35512
109604,,,,0.039063,0.852539,-0.059570
109614,,,,0.053711,0.858398,-0.070313
109624,1944-0,35514
109625,,,,0.075195,0.863281,-0.114258
109635,,,,0.090820,0.869141,-0.131836
109645,1944-0,35511
109645,,,,0.091797,0.894531,-0.130859
109655,,,,0.084961,0.952148,-0.128906
109665,1944-0,35510
109666,,,,0.100586,1.024414,-0.135742
109676,,,,0.120117,1.103516,-0.139648
109686,1943-0,35505
109686,,,,0.151367,1.127930,-0.124023
109696,,,,0.187500,1.125977,-0.089844
109706,1945-0,35504
109707,,,,0.217773,1.100586,-0.028320
109717,,,,0.245117,1.080078,0.008789
109727,1946-0,35504
109727,,,,0.227539,1.065430,-0.031250
109737,,,,0.135742,1.063477,-0.096680
109747,1944-0,35502
109748,,,,0.015625,1.114258,-0.169922
109758,,,,-0.155273,1.164063,-0.193359
109768,1945-0,35511
109768,,,,-0.325195,1.216797,-0.071289
109778,,,,-0.414063,1.236328,0.096680
109788,1942-0,35523
109789,,,,-0.415039,1.197266,0.199219
109799,,,,-0.329102,1.237305,0.185547
109809,1942-0,35536
109809,,,,-0.179688,1.222656,0.226563
109820,,,,-0.041016,1.209961,0.341797
109829,1945-0,35549
109830,,,,0.016602,1.213867,0.447266
109840,,,,0.044922,1.270508,0.375000
109850,1944-0,35535
109850,,,,0.083984,1.272461,0.246094
109861,,,,0.124023,1.236328,0.143555
109871,1944-0,35530
109871,,,,0.146484,1.230469,0.075195
109881,,,,0.184570,1.281250,0.014648
109891,1945-0,35532
109891,,,,0.208008,1.282227,0.086914
109902,,,,0.197266,1.200195,0.181641
109912,1943-0,35528
109912,,,,0.174805,1.095703,0.170898
109922,,,,0.150391,0.953125,0.075195
109932,1944-0,35524
109932,,,,0.133789,0.821289,-0.033203
109943,,,,0.096680,0.727539,-0.117188
109953,1945-0,35523
109953,,,,0.062500,0.692383,-0.131836
109963,,,,0.043945,0.685547,-0.120117
109973,1945-0,35521
109974,,,,0.039063,0.657227,-0.108398
109984,,,,0.035156,0.599609,-0.093750
109994,1944-0,35524
109994,,,,0.021484,0.522461,-0.095703
110004,,,,-0.009766,0.473633,-0.085938
110014,1946-0,35525
110015,,,,-0.035156,0.461914,-0.066406
110025,,,,-0.022461,0.472656,-0.022461
110035,1945-0,35521
110035,,,,-0.029297,0.500000,-0.012695
110045,,,,-0.013672,0.539063,-0.023438
110055,1944-0,35519
110056,,,,-0.004883,0.575195,-0.046875
110066,,,,-0.013672,0.625977,-0.077148
110076,1945-0,35519
110076,,,,-0.000977,0.700195,-0.079102
110086,,,,0.015625,0.789063,-0.098633
110096,1944-0,35525
110097,,,,0.020508,0.895508,-0.101563
110107,,,,0.023438,0.995117,-0.085938
110117,1945-0,35532
110117,,,,0.017578,1.100586,-0.072266
110128,,,,0.004883,1.179688,-0.059570
110137,1946-0,35530
110138,,,,0.009766,1.249023,-0.086914
110148,,,,0.014648,1.332031,-0.137695
110158,1944-0,35529
110158,,,,0.005859,1.411133,-0.159180
110169,,,,-0.016602,1.468750,-0.123047
110179,1945-0,35526
110179,,,,-0.062500,1.446289,-0.047852
110189,,,,-0.107422,1.446289,-0.116211
110199,1944-0,35520
110199,,,,-0.118164,1.416016,-0.236328
110210,,,,-0.131836,1.354492,-0.256836
110220,1946-0,35518
110220,,,,-0.106445,1.301758,-0.264648
110230,,,,-0.030273,1.223633,-0.225586
110240,1945-0,35519
110240,,,,0.053711,1.103516,-0.121094
110251,,,,0.161133,0.994141,-0.034180
110261,1944-0,35516
110261,,,,0.354492,0.980469,0.088867
110271,,,,0.479492,0.973633,0.327148
110281,1943-0,35541
110282,,,,0.419922,0.930664,0.569336
110292,,,,0.249023,0.914063,0.734375
110302,1943-0,35574
110302,,,,0.102539,0.973633,0.763672
110312,,,,-0.037109,1.037109,0.675781
110322,1945-0,35559
110323,,,,0.012695,1.116211,0.502930
110333,,,,0.146484,1.188477,0.266602
110343,1945-0,35544
110343,,,,0.170898,1.251953,0.083008
110353,,,,0.145508,1.342773,0.011719
110363,1944-0,35539
110364,,,,0.066406,1.446289,0.050781
110374,,,,-0.010742,1.446289,0.173828
110384,1944-0,35525
110384,,,,-0.083008,1.381836,0.217773
110394,,,,-0.117188,1.270508,0.179688
110404,1947-0,35514
110405,,,,-0.136719,1.098633,0.094727
110415,,,,-0.096680,0.941406,-0.003906
110425,1944-0,35512
110425,,,,-0.074219,0.874023,-0.072266
110435,,,,-0.057617,0.841797,-0.091797
110445,1944-0,35510
110446,,,,-0.050781,0.811523,-0.108398
110456,,,,-0.063477,0.735352,-0.111328
110466,1946-0,35511
110466,,,,-0.085938,0.609375,-0.119141
110477,,,,-0.106445,0.500000,-0.110352
110486,1945-0,35514
110487,,,,-0.087891,0.406250,-0.110352
110497,,,,-0.084961,0.370117,-0.091797
110507,1942-0,35513
110507,,,,-0.071289,0.363281,-0.044922
110518,,,,-0.053711,0.434570,-0.004883
110528,1946-0,35511
110528,,,,-0.054688,0.516602,0.008789
110538,,,,-0.060547,0.589844,-0.020508
110548,1945-0,35510
110548,,,,-0.046875,0.659180,-0.038086
110559,,,,-0.035156,0.744141,-0.026367
110569,1945-0,35511
110569,,,,0.007813,0.859375,-0.035156
110579,,,,0.039063,0.964844,-0.042969
110589,1946-0,35510
110589,,,,0.089844,1.057617,-0.024414
110600,,,,0.111328,1.154297,-0.031250
110610,1943-0,35513
110610,,,,0.126953,1.239258,-0.083984
110620,,,,0.150391,1.306641,-0.143555
110630,1947-0,35512
110631,,,,0.241211,1.348633,-0.160156
110641,,,,0.317383,1.355469,-0.120117
110651,1942-0,35505
110651,,,,0.398438,1.407227,-0.068359
110661,,,,0.425781,1.404297,-0.057617
110671,1947-0,35500
110672,,,,0.416016,1.368164,-0.120117
110682,,,,0.321289,1.226563,-0.180664
110692,1944-0,35498
110692,,,,0.213867,1.097656,-0.249023
110702,,,,0.021484,1.041016,-0.267578
110712,1945-0,35501
110713,,,,-0.248047,1.021484,-0.132813
110723,,,,-0.400391,0.963867,0.121094
110733,1945-0,35515
110733,,,,-0.518555,0.882813,0.332031
110743,,,,-0.486328,0.830078,0.498047
110753,1944-0,35547
110754,,,,-0.372070,0.826172,0.610352
110764,,,,-0.200195,0.920898,0.603516
110774,1942-0,35538
110774,,,,-0.007813,1.096680,0.475586
110784,,,,0.119141,1.346680,0.233398
110794,1944-0,35521
110795,,,,0.082031,1.475586,0.125000
110805,,,,0.085938,1.495117,0.112305
110815,1948-0,35531
110815,,,,0.125977,1.505859,0.071289
110826,,,,0.157227,1.440430,0.090820
110836,1945-0,35530
110836,,,,0.196289,1.318359,0.129883
110846,,,,0.218750,1.196289,0.122070
110856,1947-0,35515
110856,,,,0.211914,1.048828,0.116211
110867,,,,0.145508,0.928711,0.049805
110877,1948-0,35505
110877,,,,0.073242,0.838867,-0.034180
110887,,,,0.032227,0.790039,-0.114258
110897,1945-0,35504
110897,,,,0.021484,0.780273,-0.135742
110908,,,,0.038086,0.776367,-0.127930
110918,1946-0,35501
110918,,,,0.023438,0.757813,-0.106445
110928,,,,-0.019531,0.704102,-0.140625
110938,1944-0,35506
110938,,,,-0.026367,0.583008,-0.120117
110949,,,,-0.027344,0.475586,-0.094727
110959,1946-0,35510
110959,,,,-0.014648,0.415039,-0.076172
110969,,,,-0.010742,0.399414,-0.029297
110979,1943-0,35506
110980,,,,0.001953,0.432617,0.009766
110990,,,,0.042969,0.516602,-0.052734
111000,1945-0,35506
111000,,,,0.092773,0.589844,-0.120117
111010,,,,0.133789,0.672852,-0.170898
111020,1944-0,35514
111021,,,,0.155273,0.762695,-0.224609
111031,,,,0.122070,0.829102,-0.203125
111041,1946-0,35516
111041,,,,0.056641,0.894531,-0.145508
111051,,,,-0.043945,0.953125,-0.106445
111061,1946-0,35508
111062,,,,-0.117188,0.989258,-0.095703
111072,,,,-0.179688,1.017578,-0.095703
111082,1945-0,35507
111082,,,,-0.252930,1.092773,-0.085938
111092,,,,-0.322266,1.208008,-0.068359
111102,1944-0,35507
111103,,,,-0.369141,1.358398,-0.123047
111113,,,,-0.305664,1.470703,-0.231445
111123,1943-0,35501
111123,,,,-0.204102,1.504883,-0.314453
111133,,,,-0.074219,1.496094,-0.328125
111143,1947-0,35502
111144,,,,0.067383,1.429688,-0.312500
111154,,,,0.273438,1.337891,-0.363281
111164,1946-0,35518
111164,,,,0.512695,1.286133,-0.325195
111175,,,,0.621094,1.158203,-0.047852
111184,1946-0,35516
111185,,,,0.590820,1.066406,0.257813
111195,,,,0.372070,0.953125,0.556641
111205,1942-0,35536
111205,,,,0.130859,0.875977,0.723633
111216,,,,-0.037109,0.916992,0.705078
111226,1944-0,35550
111226,,,,-0.137695,1.042969,0.565430
111236,,,,-0.103516,1.190430,0.415039
111246,1943-0,35522
111246,,,,0.009766,1.326172,0.234375
111257,,,,0.115234,1.435547,0.097656
111267,1947-0,35514
111267,,,,0.107422,1.450195,0.071289
111277,,,,0.013672,1.481445,-0.015625
111287,1943-0,35509
111287,,,,-0.085938,1.473633,0.007813
111298,,,,-0.146484,1.363281,0.164063
111308,1943-0,35493
111308,,,,-0.174805,1.262695,0.226563
111318,,,,-0.099609,1.140625,0.167969
111328,1946-0,35488
111329,,,,-0.035156,1.012695,0.043945
111339,,,,0.011719,0.868164,-0.042969
111349,1946-0,35487
111349,,,,-0.013672,0.773438,-0.100586
111359,,,,0.002930,0.687500,-0.075195
111369,1944-0,35487
111370,,,,-0.026367,0.646484,-0.090820
111380,,,,-0.045898,0.584961,-0.107422
111390,1942-0,35489
111390,,,,-0.043945,0.492188,-0.123047
111400,,,,-0.061523,0.417969,-0.141602
111410,1943-0,35492
111411,,,,-0.038086,0.373047,-0.139648
111421,,,,-0.018555,0.369141,-0.112305
111431,1944-0,35492
111431,,,,0.009766,0.400391,-0.086914
111441,,,,-0.032227,0.425781,-0.077148
111451,1945-0,35495
111452,,,,-0.054688,0.454102,-0.090820
111462,,,,-0.062500,0.489258,-0.091797
111472,1946-0,35499
111472,,,,-0.057617,0.559570,-0.083008
111482,,,,-0.005859,0.650391,-0.085938
111492,1943-0,35502
111493,,,,0.069336,0.768555,-0.082031
111503,,,,0.109375,0.879883,-0.056641
111513,1944-0,35500
111513,,,,0.159180,0.996094,-0.037109
111524,,,,0.214844,1.161133,-0.041992
111533,1946-0,35496
111534,,,,0.244141,1.293945,-0.026367
111544,,,,0.269531,1.408203,-0.003906
111554,1940-0,35494
111554,,,,0.302734,1.481445,-0.032227
111565,,,,0.344727,1.496094,-0.097656
111575,1945-0,35483
111575,,,,0.349609,1.437500,-0.137695
111585,,,,0.337891,1.394531,-0.208008
111595,1947-0,35475
111595,,,,0.347656,1.372070,-0.276367
111606,,,,0.366211,1.358398,-0.307617
111616,1942-0,35477
111616,,,,0.301758,1.301758,-0.294922
111626,,,,0.142578,1.262695,-0.283203
111636,1943-0,35479
111636,,,,-0.027344,1.216797,-0.147461
111647,,,,-0.172852,1.096680,0.083008
111657,1945-0,35493
111657,,,,-0.288086,0.978516,0.277344
111667,,,,-0.375977,0.875977,0.415039
111677,1944-0,35524
111678,,,,-0.396484,0.836914,0.478516
111688,,,,-0.266602,0.920898,0.400391
111698,1943-0,35517
111698,,,,-0.149414,1.044922,0.295898
111708,,,,-0.021484,1.253906,0.147461
111718,1944-0,35506
111719,,,,0.022461,1.368164,0.090820
111729,,,,0.056641,1.442383,0.122070
111739,1944-0,35516
111739,,,,0.068359,1.343750,0.166016
111749,,,,0.166016,1.286133,0.123047
111759,1944-0,35527
111760,,,,0.220703,1.208008,0.173828
111770,,,,0.235352,1.126953,0.251953
111780,1946-0,35522
111780,,,,0.217773,1.042969,0.249023
111790,,,,0.186523,0.947266,0.150391
111800,1942-0,35516
111801,,,,0.140625,0.871094,0.035156
111811,,,,0.076172,0.821289,-0.045898
111821,,,,0.032227,0.795898,-0.055664
111821,1943-0,35515
111831,,,,-0.000977,0.781250,-0.041992
111841,1942-0,35513
111842,,,,-0.045898,0.729492,-0.064453
111852,,,,-0.083008,0.629883,-0.094727
111862,1943-0,35514
111862,,,,-0.090820,0.529297,-0.106445
111873,,,,-0.092773,0.435547,-0.105469
111882,1945-0,35517
111883,,,,-0.085938,0.400391,-0.085938
111893,,,,-0.043945,0.397461,-0.048828
111903,1943-0,35517
111903,,,,0.002930,0.432617,-0.023438
111914,,,,0.035156,0.473633,-0.003906
111924,,,,0.101563,0.545898,-0.016602
111934,,,,0.159180,0.642578,-0.042969
111924,1944-0,35519
111944,1944-0,35530
111944,,,,0.258789,0.776367,-0.117188
111955,,,,0.315430,0.903320,-0.148438
111965,1943-0,35547
111965,,,,0.311523,1.007813,-0.125977
111975,,,,0.209961,1.093750,-0.080078
111985,1944-0,35548
111985,,,,0.103516,1.138672,-0.032227
111996,,,,-0.005859,1.179688,-0.040039
112006,1944-0,35542
112006,,,,-0.069336,1.205078,-0.090820
112016,,,,-0.140625,1.230469,-0.152344
112026,1945-0,35539
112027,,,,-0.247070,1.273438,-0.163086
112037,,,,-0.375977,1.365234,-0.184570
112047,1944-0,35532
112047,,,,-0.394531,1.497070,-0.266602
112057,,,,-0.301758,1.484375,-0.262695
112067,1945-0,35521
112068,,,,-0.156250,1.393555,-0.246094
112078,,,,0.028320,1.303711,-0.238281
112088,1946-0,35513
112088,,,,0.204102,1.250000,-0.156250
112098,,,,0.415039,1.259766,0.066406
112108,1946-0,35522
112109,,,,0.480469,1.233398,0.344727
112119,,,,0.295898,1.152344,0.644531
112129,1943-0,35546
112129,,,,0.111328,1.101563,0.785156
112139,,,,0.092773,1.140625,0.754883
112149,1941-0,35546
112150,,,,0.125977,1.178711,0.546875
112160,,,,0.192383,1.179688,0.304688
112170,1945-0,35521
112170,,,,0.255859,1.194336,0.066406
112180,,,,0.258789,1.208984,-0.056641
112190,1943-0,35513
112191,,,,0.183594,1.207031,-0.021484
112201,,,,0.071289,1.239258,0.088867
112211,1944-0,35505
112211,,,,-0.058594,1.288086,0.131836
112221,,,,-0.111328,1.225586,0.180664
112231,1943-0,35499
112232,,,,-0.121094,1.113281,0.203125
112242,,,,-0.090820,0.999023,0.177734
112252,1946-0,35498
112252,,,,-0.030273,0.878906,0.118164
112263,,,,0.009766,0.777344,-0.031250
112273,1942-0,35500
112273,,,,0.041016,0.709961,-0.102539
112283,,,,0.068359,0.650391,-0.093750
112293,1946-0,35502
112293,,,,0.070313,0.616211,-0.037109
112304,,,,0.061523,0.568359,-0.007813
112314,1945-0,35507
112314,,,,0.034180,0.473633,0.019531
112324,,,,0.006836,0.409180,0.017578
112334,1945-0,35513
112334,,,,-0.002930,0.394531,-0.011719
112345,,,,0.010742,0.434570,-0.043945
112355,1943-0,35516
112355,,,,-0.029297,0.507813,-0.041992
112365,,,,-0.028320,0.583008,-0.030273
112375,1942-0,35517
112375,,,,-0.040039,0.647461,-0.050781
112386,,,,-0.021484,0.718750,-0.081055
112396,1945-0,35516
112396,,,,0.009766,0.783203,-0.078125
112406,,,,0.029297,0.853516,-0.066406
112416,1944-0,35513
112417,,,,0.071289,0.926758,-0.045898
112427,,,,0.119141,0.967773,-0.005859
112437,1944-0,35511
112437,,,,0.167969,1.004883,0.014648
112447,,,,0.206055,1.081055,-0.031250
112457,1946-0,35511
112458,,,,0.237305,1.168945,-0.097656
112468,,,,0.259766,1.239258,-0.121094
112478,1942-0,35505
112478,,,,0.290039,1.292969,-0.108398
112488,,,,0.319336,1.375000,-0.107422
112498,1944-0,35500
112499,,,,0.325195,1.462891,-0.089844
112509,,,,0.270508,1.449219,-0.046875
112519,1943-0,35503
112519,,,,0.221680,1.375000,-0.029297
112529,,,,0.154297,1.264648,-0.068359
112539,1942-0,35502
112540,,,,0.045898,1.119141,-0.088867
112550,,,,-0.108398,1.003906,-0.035156
112560,1944-0,35507
112560,,,,-0.333008,0.984375,0.159180
112571,,,,-0.511719,0.979492,0.420898
112580,1941-0,35547
112581,,,,-0.519531,0.982422,0.561523
112591,,,,-0.348633,1.071289,0.542969
112601,1943-0,35557
112601,,,,-0.134766,1.199219,0.439453
112612,,,,0.012695,1.396484,0.320313
112622,1944-0,35532
112622,,,,-0.004883,1.487305,0.203125
112632,,,,0.036133,1.538086,0.075195
112642,1940-0,35536
112642,,,,0.084961,1.514648,-0.036133
112653,,,,0.130859,1.456055,0.011719
112663,1940-0,35537
112663,,,,0.210938,1.356445,0.207031
112673,,,,0.258789,1.284180,0.321289
112683,1944-0,35524
112683,,,,0.249023,1.162109,0.297852
112694,,,,0.229492,0.982422,0.203125
112704,1943-0,35515
112704,,,,0.168945,0.833984,0.052734
112714,,,,0.110352,0.729492,-0.066406
112724,1941-0,35515
112725,,,,0.072266,0.681641,-0.114258
112735,,,,0.027344,0.672852,-0.117188
112745,1943-0,35510
112745,,,,-0.034180,0.635742,-0.097656
112755,,,,-0.088867,0.544922,-0.059570
112765,1944-0,35507
112766,,,,-0.116211,0.436523,-0.016602
112776,,,,-0.112305,0.331055,0.007813
112786,,,,-0.101563,0.268555,0.003906
112786,1944-0,35507
112796,,,,-0.076172,0.281250,-0.022461
112806,1944-0,35501
112807,,,,-0.008789,0.350586,-0.028320
112817,,,,0.057617,0.479492,-0.034180
112827,1943-0,35499
112827,,,,0.123047,0.616211,-0.070313
112837,,,,0.212891,0.767578,-0.106445
112847,1945-0,35508
112848,,,,0.248047,0.867188,-0.108398
112858,,,,0.251953,0.949219,-0.101563
112868,1943-0,35511
112868,,,,0.205078,0.998047,-0.044922
112878,,,,0.091797,1.025391,-0.013672
112889,,,,-0.019531,1.043945,-0.039063
112899,,,,-0.092773,1.044922,-0.084961
112909,,,,-0.178711,1.095703,-0.096680
112920,,,,-0.289063,1.211914,-0.115234
112930,,,,-0.352539,1.330078,-0.160156
112940,,,,-0.309570,1.418945,-0.220703
112950,,,,-0.210938,1.381836,-0.209961
112961,,,,-0.116211,1.340820,-0.220703
112971,,,,0.026367,1.341797,-0.238281
112981,,,,0.185547,1.343750,-0.159180
112888,1943-0,35504
112909,1943-0,35501
112930,1943-0,35498
112950,1943-0,35495
112971,1943-0,35494
112991,1943-0,35493
112991,,,,0.377930,1.362305,-0.004883
113002,,,,0.427734,1.343750,0.212891
113012,,,,0.248047,1.240234,0.510742
113012,1941-0,35505
113022,,,,0.057617,1.165039,0.705078
113032,1941-0,35529
113033,,,,0.007813,1.181641,0.732422
113043,,,,0.029297,1.180664,0.594727
113053,1945-0,35515
113053,,,,0.122070,1.173828,0.418945
113063,,,,0.230469,1.197266,0.181641
113073,1944-0,35500
113074,,,,0.288086,1.243164,-0.013672
113084,,,,0.203125,1.283203,-0.091797
113094,1940-0,35494
113094,,,,0.078125,1.360352,-0.059570
113104,,,,-0.045898,1.394531,0.038086
113114,1943-0,35485
113115,,,,-0.129883,1.321289,0.202148
113125,,,,-0.166016,1.212891,0.240234
113135,1941-0,35477
113135,,,,-0.132813,1.065430,0.154297
113145,,,,-0.077148,0.910156,0.022461
113155,1941-0,35476
113156,,,,-0.023438,0.780273,-0.088867
113166,,,,0.033203,0.714844,-0.142578
113176,1941-0,35476
113176,,,,0.079102,0.657227,-0.112305
113187,,,,0.087891,0.616211,-0.055664
113197,1943-0,35479
113197,,,,0.089844,0.534180,-0.012695
113207,,,,0.041016,0.432617,-0.018555
113217,1943-0,35483
113217,,,,0.026367,0.358398,-0.044922
113228,,,,0.020508,0.328125,-0.063477
113238,1943-0,35487
113238,,,,0.007813,0.343750,-0.081055
113248,,,,-0.035156,0.427734,-0.083008
113258,1944-0,35488
113258,,,,-0.080078,0.536133,-0.045898
113269,,,,-0.095703,0.616211,-0.046875
113279,1943-0,35487
113279,,,,-0.099609,0.681641,-0.079102
113289,,,,-0.076172,0.738281,-0.114258
113299,1944-0,35489
113299,,,,-0.023438,0.801758,-0.115234
113310,,,,0.025391,0.878906,-0.082031
113320,1942-0,35491
113320,,,,0.078125,0.951172,-0.069336
113330,,,,0.120117,1.004883,-0.080078
113340,1944-0,35487
113341,,,,0.171875,1.065430,-0.092773
113351,,,,0.224609,1.123047,-0.105469
113361,1943-0,35484
113361,,,,0.291992,1.198242,-0.116211
113371,,,,0.358398,1.272461,-0.108398
113381,1940-0,35481
113382,,,,0.418945,1.350586,-0.095703
113392,,,,0.420898,1.434570,-0.094727
113402,1943-0,35477
113402,,,,0.364258,1.458984,-0.094727
113412,,,,0.325195,1.407227,-0.153320
113422,1944-0,35481
113423,,,,0.259766,1.303711,-0.257813
113433,,,,0.152344,1.215820,-0.289063
113443,1944-0,35479
113443,,,,-0.035156,1.131836,-0.121094
113453,,,,-0.215820,1.105469,0.127930
113463,1941-0,35496
113464,,,,-0.384766,1.008789,0.405273
113474,,,,-0.391602,0.939453,0.532227
113484,1943-0,35527
113484,,,,-0.344727,0.952148,0.522461
113494,,,,-0.221680,1.034180,0.430664
113504,1943-0,35517
113505,,,,-0.119141,1.198242,0.308594
113515,,,,-0.043945,1.366211,0.092773
113525,1943-0,35504
113525,,,,0.033203,1.531250,-0.060547
113536,,,,0.075195,1.543945,-0.083008
113545,1944-0,35511
113546,,,,0.118164,1.468750,0.000000
113556,,,,0.189453,1.357422,0.138672
113566,1944-0,35509
113566,,,,0.247070,1.213867,0.324219
113577,,,,0.271484,1.083984,0.330078
113587,1943-0,35496
113587,,,,0.255859,0.989258,0.210938
113597,,,,0.202148,0.887695,0.041016
113607,1942-0,35496
113607,,,,0.150391,0.791992,-0.084961
113618,,,,0.099609,0.750000,-0.138672
113628,1940-0,35495
113628,,,,0.040039,0.748047,-0.146484
113638,,,,-0.020508,0.718750,-0.111328
113648,1941-0,35489
113648,,,,-0.082031,0.645508,-0.092773
113659,,,,-0.101563,0.533203,-0.098633
113669,1940-0,35490
113669,,,,-0.098633,0.404297,-0.093750
113679,,,,-0.119141,0.296875,-0.096680
113689,1943-0,35490
113689,,,,-0.103516,0.272461,-0.079102
113700,,,,-0.050781,0.318359,-0.027344
113710,1941-0,35485
113710,,,,0.018555,0.418945,-0.023438
113720,,,,0.069336,0.530273,-0.043945
113730,1944-0,35484
113731,,,,0.153320,0.645508,-0.077148
113741,,,,0.184570,0.767578,-0.104492
113751,1942-0,35490
113751,,,,0.206055,0.905273,-0.107422
113761,,,,0.200195,1.040039,-0.070313
113771,1943-0,35490
113772,,,,0.125000,1.193359,-0.065430
113782,,,,0.042969,1.321289,-0.052734
113792,1943-0,35489
113792,,,,-0.070313,1.344727,-0.057617
113802,,,,-0.164063,1.339844,-0.114258
113812,1942-0,35486
113813,,,,-0.170898,1.332031,-0.197266
113823,,,,-0.178711,1.344727,-0.266602
113833,1943-0,35482
113833,,,,-0.140625,1.353516,-0.325195
113843,,,,-0.095703,1.299805,-0.309570
113853,1941-0,35477
113854,,,,-0.029297,1.270508,-0.255859
113864,,,,0.013672,1.242188,-0.218750
113874,1942-0,35476
113874,,,,0.116211,1.240234,-0.132813
113884,,,,0.239258,1.245117,0.017578
113894,1942-0,35494
113895,,,,0.298828,1.235352,0.275391
113905,,,,0.193359,1.186523,0.509766
113915,1944-0,35528
113915,,,,0.034180,1.165039,0.621094
113925,,,,0.028320,1.206055,0.628906
113935,1945-0,35529
113936,,,,0.095703,1.186523,0.562500
113946,,,,0.247070,1.172852,0.329102
113956,1944-0,35507
113956,,,,0.347656,1.168945,0.093750
113967,,,,0.323242,1.173828,-0.060547
113977,1945-0,35502
113977,,,,0.216797,1.154297,-0.057617
113987,,,,0.134766,1.180664,0.062500
113997,1944-0,35491
113997,,,,0.035156,1.214844,0.132813
114008,,,,-0.015625,1.178711,0.192383
114018,1942-0,35483
114018,,,,-0.029297,1.115234,0.185547
114028,,,,-0.042969,1.010742,0.116211
114038,1942-0,35482
114038,,,,-0.028320,0.892578,0.054688
114049,,,,0.000000,0.786133,-0.041016
114059,1945-0,35484
114059,,,,0.038086,0.728516,-0.129883
114069,,,,0.078125,0.679688,-0.141602
114079,1942-0,35490
114080,,,,0.086914,0.642578,-0.090820
114090,,,,0.068359,0.588867,-0.034180
114100,1942-0,35499
114100,,,,0.038086,0.510742,-0.020508
114110,,,,0.021484,0.437500,-0.026367
114120,1946-0,35502
114121,,,,-0.003906,0.382813,-0.033203
114131,,,,-0.023438,0.362305,-0.068359
114141,1943-0,35502
114141,,,,-0.064453,0.401367,-0.094727
114151,,,,-0.074219,0.473633,-0.075195
114161,1943-0,35502
114162,,,,-0.091797,0.548828,-0.097656
114172,,,,-0.077148,0.624023,-0.136719
114182,1943-0,35503
114182,,,,-0.045898,0.697266,-0.112305
114192,,,,-0.017578,0.781250,-0.070313
114202,1944-0,35505
114203,,,,0.016602,0.891602,-0.028320
114213,,,,0.065430,0.987305,0.014648
114223,1941-0,35503
114223,,,,0.122070,1.099609,0.017578
114233,,,,0.197266,1.220703,-0.030273
114243,1946-0,35503
114244,,,,0.284180,1.329102,-0.078125
114254,,,,0.386719,1.385742,-0.089844
114264,1940-0,35498
114264,,,,0.496094,1.436523,-0.084961
114275,,,,0.549805,1.456055,-0.067383
114285,1941-0,35492
114285,,,,0.540039,1.470703,-0.103516
114295,,,,0.500977,1.450195,-0.154297
114305,1944-0,35491
114305,,,,0.395508,1.395508,-0.194336
114316,,,,0.236328,1.339844,-0.174805
114326,1944-0,35492
114326,,,,0.061523,1.319336,-0.073242
114336,,,,-0.166016,1.313477,0.122070
114346,1941-0,35506
114346,,,,-0.378906,1.234375,0.375000
114357,,,,-0.463867,1.093750,0.613281
114367,1943-0,35548
114367,,,,-0.533203,0.995117,0.719727
114377,,,,-0.472656,1.073242,0.565430
114387,1942-0,35545
114387,,,,-0.317383,1.206055,0.365234
114398,,,,-0.231445,1.325195,0.113281
114408,1944-0,35531
114408,,,,-0.154297,1.453125,-0.107422
114418,,,,-0.115234,1.458984,-0.110352
114428,1943-0,35533
114429,,,,-0.094727,1.372070,0.046875
114439,,,,-0.021484,1.335938,0.146484
114449,1945-0,35529
114449,,,,0.068359,1.254883,0.305664
114459,,,,0.166016,1.156250,0.402344
114469,1942-0,35523
114470,,,,0.204102,1.054688,0.325195
114480,,,,0.186523,0.924805,0.169922
114490,1945-0,35517
114490,,,,0.161133,0.797852,-0.013672
114500,,,,0.119141,0.696289,-0.157227
114510,1944-0,35515
114511,,,,0.079102,0.646484,-0.181641
114521,,,,0.030273,0.617188,-0.094727
114531,1943-0,35510
114531,,,,0.006836,0.571289,-0.029297
114541,,,,0.000977,0.485352,-0.006836
114551,1943-0,35510
114552,,,,-0.001953,0.385742,0.004883
114562,,,,-0.012695,0.302734,0.009766
114572,1943-0,35509
114572,,,,-0.017578,0.305664,0.006836
114583,,,,-0.014648,0.351563,0.002930
114592,1946-0,35505
114593,,,,0.022461,0.422852,-0.019531
114603,,,,0.057617,0.470703,-0.012695
114613,1944-0,35502
114613,,,,0.115234,0.532227,0.003906
114624,,,,0.105469,0.615234,-0.012695
114634,1943-0,35505
114634,,,,0.126953,0.705078,-0.044922
114644,,,,0.117188,0.816406,-0.065430
114654,1947-0,35516
114654,,,,0.088867,0.909180,-0.070313
114665,,,,0.003906,0.992188,-0.094727
114675,1945-0,35519
114675,,,,-0.069336,1.044922,-0.085938
114685,,,,-0.140625,1.101563,-0.097656
114695,1944-0,35516
114695,,,,-0.214844,1.149414,-0.101563
114706,,,,-0.289063,1.215820,-0.091797
114716,1947-0,35512
114716,,,,-0.345703,1.301758,-0.117188
114726,,,,-0.304688,1.395508,-0.147461
114736,1946-0,35508
114737,,,,-0.193359,1.478516,-0.125977
114747,,,,-0.104492,1.521484,-0.087891
114757,1944-0,35506
114757,,,,-0.036133,1.542969,-0.062500
114767,,,,0.030273,1.544922,-0.058594
114777,1945-0,35502
114778,,,,0.125000,1.518555,0.007813
114788,,,,0.208984,1.450195,0.173828
114798,1944-0,35505
114798,,,,0.158203,1.337891,0.431641
114808,,,,0.032227,1.243164,0.668945
114818,1946-0,35526
114819,,,,-0.025391,1.158203,0.809570
114829,,,,0.015625,1.181641,0.685547
114839,1945-0,35507
114839,,,,0.139648,1.190430,0.419922
114849,,,,0.289063,1.167969,0.163086
114859,1951-0,35494
114860,,,,0.349609,1.134766,-0.065430
114870,,,,0.225586,1.134766,-0.083008
114880,1945-0,35483
114880,,,,0.109375,1.114258,0.190430
114890,,,,-0.038086,1.167969,0.318359
114900,1946-0,35477
114901,,,,-0.174805,1.167969,0.355469
114911,,,,-0.296875,1.107422,0.370117
114921,1948-0,35477
114921,,,,-0.284180,1.040039,0.282227
114932,,,,-0.215820,0.946289,0.146484
114942,1944-0,35474
114942,,,,-0.102539,0.838867,0.024414
114952,,,,-0.008789,0.770508,-0.053711
114962,1945-0,35476
114962,,,,0.045898,0.718750,-0.064453
114973,,,,0.086914,0.671875,-0.023438
114983,1948-0,35477
114983,,,,0.110352,0.610352,0.039063
114993,,,,0.089844,0.491211,0.057617
115003,1946-0,35476
115003,,,,0.092773,0.391602,0.033203
115014,,,,0.083008,0.314453,0.009766
115024,1945-0,35475
115024,,,,0.064453,0.307617,-0.032227
115034,,,,0.032227,0.354492,-0.042969
115044,1949-0,35475
115044,,,,0.000977,0.447266,-0.025391
115055,,,,-0.039063,0.549805,-0.032227
115065,1946-0,35476
115065,,,,-0.071289,0.657227,-0.052734
115075,,,,-0.086914,0.773438,-0.068359
115085,1945-0,35478
115086,,,,-0.084961,0.853516,-0.034180
115096,,,,-0.049805,0.967773,0.003906
115106,1946-0,35478
115106,,,,-0.004883,1.035156,0.017578
115116,,,,0.052734,1.119141,0.011719
115126,1944-0,35480
115127,,,,0.082031,1.192383,-0.024414
115137,,,,0.148438,1.240234,-0.044922
115147,1946-0,35481
115147,,,,0.208984,1.277344,-0.058594
115157,,,,0.323242,1.291016,-0.080078
115167,1945-0,35476
115168,,,,0.403320,1.333008,-0.118164
115178,,,,0.395508,1.364258,-0.122070
115188,1944-0,35469
115188,,,,0.336914,1.350586,-0.047852
115198,,,,0.224609,1.301758,-0.001953
115208,1945-0,35474
115209,,,,0.144531,1.256836,-0.077148
115219,,,,-0.001953,1.210938,-0.075195
115229,1943-0,35478
115229,,,,-0.238281,1.196289,0.083984
115239,,,,-0.447266,1.146484,0.326172
115249,1943-0,35507
115250,,,,-0.519531,1.050781,0.560547
115260,,,,-0.478516,1.041992,0.666992
115270,1944-0,35536
115270,,,,-0.325195,1.149414,0.591797
115281,,,,-0.193359,1.248047,0.553711
115291,1946-0,35513
115291,,,,-0.161133,1.403320,0.376953
115301,,,,-0.148438,1.518555,0.140625
115311,1945-0,35514
115311,,,,-0.091797,1.517578,-0.018555
115322,,,,-0.095703,1.511719,-0.067383
115332,1947-0,35512
115332,,,,-0.031250,1.484375,0.065430
115342,,,,0.083984,1.391602,0.296875
115352,1944-0,35502
115352,,,,0.133789,1.239258,0.399414
115363,,,,0.132813,1.049805,0.324219
115373,1944-0,35491
115373,,,,0.122070,0.884766,0.181641
115383,,,,0.103516,0.774414,0.005859
115393,1944-0,35492
115393,,,,0.081055,0.726563,-0.106445
115404,,,,0.058594,0.699219,-0.096680
115414,1946-0,35489
115414,,,,0.025391,0.678711,-0.041016
115424,,,,-0.011719,0.613281,-0.011719
115434,1943-0,35486
115435,,,,-0.035156,0.520508,0.012695
115445,,,,-0.036133,0.416992,0.031250
115455,1943-0,35487
115455,,,,-0.041016,0.343750,0.004883
115465,,,,-0.044922,0.318359,-0.028320
115475,1944-0,35485
115476,,,,0.000977,0.335938,-0.020508
115486,,,,0.043945,0.403320,-0.020508
115496,1942-0,35485
115496,,,,0.112305,0.486328,-0.000977
115506,,,,0.166016,0.569336,-0.012695
115516,1946-0,35485
115517,,,,0.196289,0.667969,-0.055664
115527,,,,0.228516,0.762695,-0.085938
115537,1945-0,35489
115537,,,,0.194336,0.811523,-0.090820
115547,,,,0.125000,0.851563,-0.071289
115557,1944-0,35489
115558,,,,0.066406,0.878906,-0.045898
115568,,,,0.007813,0.901367,-0.033203
115578,1944-0,35485
115578,,,,-0.096680,0.932617,-0.041016
115588,,,,-0.175781,0.997070,-0.052734
115598,1946-0,35484
115599,,,,-0.283203,1.109375,-0.064453
115609,,,,-0.372070,1.253906,-0.094727
115619,1946-0,35483
115619,,,,-0.383789,1.407227,-0.128906
115630,,,,-0.322266,1.487305,-0.151367
115639,1946-0,35479
115640,,,,-0.226563,1.526367,-0.206055
115650,,,,-0.092773,1.509766,-0.252930
115660,1943-0,35480
115660,,,,0.070313,1.517578,-0.309570
115671,,,,0.229492,1.492188,-0.212891
115681,1942-0,35486
115681,,,,0.333008,1.447266,0.010742
115691,,,,0.198242,1.374023,0.274414
115701,1945-0,35504
115701,,,,0.025391,1.263672,0.537109
115712,,,,-0.077148,1.193359,0.742188
115722,1945-0,35525
115722,,,,-0.083984,1.125000,0.844727
115732,,,,0.011719,1.118164,0.765625
115742,1944-0,35504
115742,,,,0.170898,1.137695,0.494141
115753,,,,0.303711,1.161133,0.182617
115763,1945-0,35496
115763,,,,0.319336,1.197266,-0.075195
115773,,,,0.240234,1.233398,-0.124023
115783,1947-0,35492
115784,,,,0.125000,1.293945,0.024414
115794,,,,0.031250,1.331055,0.112305
115804,1946-0,35481
115804,,,,-0.062500,1.271484,0.154297
115814,,,,-0.122070,1.142578,0.221680
115824,1946-0,35472
115825,,,,-0.150391,0.980469,0.219727
115835,,,,-0.086914,0.837891,0.146484
115845,1947-0,35472
115845,,,,-0.006836,0.701172,0.041016
115855,,,,0.039063,0.636719,-0.066406
115865,1944-0,35473
115866,,,,0.090820,0.609375,-0.099609
115876,,,,0.107422,0.581055,-0.060547
115886,1944-0,35474
115886,,,,0.077148,0.562500,-0.030273
115896,,,,0.062500,0.501953,-0.014648
115906,1946-0,35476
115907,,,,0.041992,0.429688,-0.033203
115917,,,,0.032227,0.391602,-0.063477
115927,1946-0,35478
115927,,,,-0.002930,0.381836,-0.071289
115937,,,,-0.023438,0.406250,-0.082031
115947,1945-0,35475
115948,,,,-0.045898,0.479492,-0.083008
115958,,,,-0.077148,0.556641,-0.042969
115968,1945-0,35475
115968,,,,-0.100586,0.654297,-0.017578
115979,,,,-0.114258,0.755859,-0.041992
115988,1944-0,35477
115989,,,,-0.105469,0.862305,-0.070313
115999,,,,-0.035156,0.941406,-0.032227
116009,1946-0,35477
116009,,,,0.036133,0.996094,0.005859
116020,,,,0.109375,1.053711,-0.009766
116030,1945-0,35476
116030,,,,0.200195,1.148438,-0.071289
116040,,,,0.293945,1.220703,-0.116211
116050,1944-0,35474
116050,,,,0.432617,1.299805,-0.117188
116061,,,,0.499023,1.369141,-0.092773
116071,1946-0,35471
116071,,,,0.474609,1.459961,-0.084961
116081,,,,0.368164,1.511719,-0.081055
116091,1944-0,35472
116091,,,,0.260742,1.491211,-0.054688
116102,,,,0.142578,1.400391,-0.064453
116112,1947-0,35473
116112,,,,0.017578,1.277344,-0.079102
116122,,,,-0.166016,1.196289,0.011719
116132,1944-0,35481
116132,,,,-0.358398,1.127930,0.259766
116143,,,,-0.467773,1.052734,0.530273
116153,1943-0,35517
116153,,,,-0.482422,0.993164,0.666016
116163,,,,-0.356445,1.067383,0.554688
116173,1943-0,35520
116174,,,,-0.151367,1.175781,0.415039
116184,,,,-0.055664,1.260742,0.291992
116194,1942-0,35500
116194,,,,-0.029297,1.377930,0.130859
116204,,,,0.000977,1.439453,0.040039
116214,1942-0,35506
116215,,,,0.039063,1.397461,0.041016
116225,,,,0.059570,1.347656,0.060547
116235,1946-0,35512
116235,,,,0.129883,1.283203,0.160156
116245,,,,0.208984,1.179688,0.339844
116255,1944-0,35509
116256,,,,0.215820,1.098633,0.396484
116266,,,,0.167969,0.986328,0.298828
116276,1943-0,35506
116276,,,,0.151367,0.880859,0.125000
116286,,,,0.132813,0.786133,-0.033203
116296,1943-0,35508
116297,,,,0.092773,0.725586,-0.121094
116307,,,,0.039063,0.684570,-0.083984
116317,1942-0,35504
116317,,,,-0.006836,0.649414,-0.012695
116327,,,,-0.027344,0.610352,-0.004883
116337,1942-0,35500
116338,,,,-0.037109,0.534180,-0.000977
116348,,,,-0.058594,0.464844,0.013672
116358,1944-0,35499
116358,,,,-0.061523,0.413086,0.013672
116369,,,,-0.051758,0.402344,-0.019531
116379,1942-0,35498
116379,,,,-0.016602,0.421875,-0.048828
116389,,,,0.000000,0.481445,-0.053711
116399,1943-0,35497
116399,,,,0.029297,0.558594,-0.041016
116410,,,,0.060547,0.646484,-0.015625
116420,1946-0,35502
116420,,,,0.077148,0.745117,-0.035156
116430,,,,0.099609,0.811523,-0.088867
116440,1945-0,35506
116440,,,,0.112305,0.852539,-0.105469
116451,,,,0.060547,0.902344,-0.093750
116461,1943-0,35509
116461,,,,-0.014648,0.932617,-0.048828
116471,,,,-0.088867,0.962891,-0.039063
116481,1942-0,35503
116481,,,,-0.142578,1.000977,-0.048828
116492,,,,-0.216797,1.102539,-0.082031
116502,1943-0,35503
116502,,,,-0.273438,1.244141,-0.119141
116512,,,,-0.304688,1.404297,-0.153320
116522,1944-0,35501
116523,,,,-0.272461,1.499023,-0.161133
116533,,,,-0.199219,1.516602,-0.192383
116543,1943-0,35496
116543,,,,-0.102539,1.493164,-0.195313
116553,,,,0.033203,1.439453,-0.156250
116563,1943-0,35495
116564,,,,0.207031,1.426758,-0.109375
116574,,,,0.381836,1.407227,0.064453
116584,1942-0,35508
116584,,,,0.382813,1.329102,0.375000
116594,,,,0.221680,1.243164,0.685547
116604,1943-0,35531
116605,,,,0.078125,1.175781,0.875000
116615,,,,0.050781,1.216797,0.816406
116625,1947-0,35528
116625,,,,0.076172,1.226563,0.577148
116635,,,,0.186523,1.172852,0.310547
116645,1944-0,35509
116646,,,,0.291992,1.140625,0.008789
116656,,,,0.278320,1.142578,-0.190430
116666,1943-0,35505
116666,,,,0.158203,1.159180,-0.111328
116677,,,,0.032227,1.210938,0.098633
116686,1942-0,35498
116687,,,,-0.135742,1.259766,0.211914
116697,,,,-0.238281,1.209961,0.315430
116707,1944-0,35490
116707,,,,-0.279297,1.118164,0.275391
116718,,,,-0.248047,0.983398,0.176758
116728,1946-0,35488
116728,,,,-0.167969,0.840820,0.058594
116738,,,,-0.088867,0.733398,-0.050781
116748,1943-0,35493
116748,,,,-0.042969,0.669922,-0.129883
116759,,,,0.004883,0.623047,-0.134766
116769,1942-0,35497
116769,,,,0.022461,0.578125,-0.088867
116779,,,,0.005859,0.527344,-0.047852
116789,1945-0,35505
116789,,,,-0.011719,0.450195,-0.021484
116800,,,,-0.016602,0.396484,-0.013672
116810,1943-0,35515
116810,,,,-0.002930,0.381836,-0.022461
116820,,,,0.031250,0.400391,-0.044922
116830,1944-0,35521
116831,,,,0.032227,0.453125,-0.045898
116841,,,,0.041992,0.548828,-0.042969
116851,1944-0,35525
116851,,,,0.041992,0.645508,-0.049805
116861,,,,0.064453,0.737305,-0.053711
116871,1948-0,35526
116872,,,,0.067383,0.822266,-0.072266
116882,,,,0.062500,0.893555,-0.053711
116892,1944-0,35525
116892,,,,0.084961,0.964844,-0.031250
116902,,,,0.095703,1.041992,-0.038086
116912,1945-0,35521
116913,,,,0.109375,1.136719,-0.052734
116923,,,,0.128906,1.216797,-0.055664
116933,1946-0,35518
116933,,,,0.178711,1.275391,-0.035156
116943,,,,0.208984,1.336914,-0.021484
116953,1942-0,35513
116954,,,,0.259766,1.399414,-0.041992
116964,,,,0.272461,1.463867,-0.076172
116974,1941-0,35506
116974,,,,0.303711,1.478516,-0.079102
116984,,,,0.283203,1.416992,-0.099609
116994,1945-0,35503
116995,,,,0.224609,1.308594,-0.145508
117005,,,,0.081055,1.195313,-0.109375
117015,1943-0,35502
117015,,,,-0.120117,1.126953,0.059570
117025,,,,-0.293945,1.083984,0.277344
117035,1945-0,35525
117036,,,,-0.372070,1.004883,0.458008
117046,,,,-0.416016,0.929688,0.564453
117056,1944-0,35562
117056,,,,-0.343750,0.970703,0.580078
117067,,,,-0.173828,1.054688,0.543945
117077,1942-0,35550
117077,,,,-0.080078,1.240234,0.367188
117087,,,,-0.073242,1.451172,0.143555
117097,1943-0,35541
117097,,,,-0.095703,1.552734,0.040039
117108,,,,-0.057617,1.500977,0.066406
117118,1944-0,35553
117118,,,,0.000000,1.399414,0.092773
117128,,,,0.079102,1.289063,0.180664
117138,1944-0,35557
117138,,,,0.151367,1.180664,0.295898
117149,,,,0.193359,1.095703,0.334961
117159,1944-0,35553
117159,,,,0.173828,0.979492,0.267578
117169,,,,0.156250,0.891602,0.139648
117179,1946-0,35558
117179,,,,0.121094,0.806641,0.014648
117190,,,,0.086914,0.756836,-0.075195
117200,1942-0,35569
117200,,,,0.071289,0.715820,-0.100586
117210,,,,0.024414,0.646484,-0.088867
117220,1946-0,35571
117221,,,,-0.000977,0.582031,-0.080078
117231,,,,-0.009766,0.482422,-0.071289
117241,1947-0,35574
117241,,,,-0.026367,0.403320,-0.085938
117251,,,,-0.043945,0.324219,-0.108398
117261,1940-0,35574
117262,,,,-0.056641,0.301758,-0.089844
117272,,,,-0.046875,0.353516,-0.054688
117282,1945-0,35567
117282,,,,-0.027344,0.427734,-0.008789
117292,,,,-0.005859,0.524414,0.038086
117302,1944-0,35563
117303,,,,0.033203,0.621094,0.017578
117313,,,,0.052734,0.725586,-0.028320
117323,1941-0,35564
117323,,,,0.080078,0.813477,-0.052734
117333,,,,0.099609,0.905273,-0.046875
117343,1944-0,35567
117344,,,,0.015625,1.002930,-0.041016
117354,,,,-0.058594,1.095703,-0.024414
117364,1941-0,35559
117364,,,,-0.101563,1.154297,-0.029297
117375,,,,-0.204102,1.192383,-0.052734
117384,1945-0,35555
117385,,,,-0.303711,1.264648,-0.102539
117395,,,,-0.359375,1.356445,-0.157227
117405,1945-0,35552
117405,,,,-0.317383,1.470703,-0.192383
117416,,,,-0.234375,1.526367,-0.201172
117426,1940-0,35544
117426,,,,-0.144531,1.528320,-0.175781
117436,,,,-0.064453,1.473633,-0.151367
117446,1946-0,35531
117446,,,,0.064453,1.416992,-0.134766
117457,,,,0.217773,1.381836,-0.020508
117467,1943-0,35531
117467,,,,0.313477,1.357422,0.291016
117477,,,,0.294922,1.257813,0.624023
117487,1941-0,35553
117487,,,,0.140625,1.171875,0.828125
117498,,,,0.098633,1.183594,0.817383
117508,1942-0,35553
117508,,,,0.114258,1.216797,0.607422
117518,,,,0.165039,1.188477,0.384766
117528,1944-0,35532
117529,,,,0.265625,1.162109,0.122070
117539,,,,0.260742,1.151367,-0.027344
117549,1942-0,35529
117549,,,,0.157227,1.137695,-0.019531
117559,,,,0.031250,1.179688,0.084961
117569,1942-0,35524
117570,,,,-0.117188,1.210938,0.188477
117580,,,,-0.217773,1.189453,0.285156
117590,1946-0,35518
117590,,,,-0.240234,1.143555,0.247070
117600,,,,-0.210938,1.024414,0.139648
117610,1943-0,35513
117611,,,,-0.115234,0.887695,0.039063
117621,,,,-0.045898,0.755859,-0.087891
117631,1944-0,35515
117631,,,,0.039063,0.657227,-0.183594
117641,,,,0.089844,0.595703,-0.168945
117651,1944-0,35516
117652,,,,0.116211,0.566406,-0.126953
117662,,,,0.086914,0.528320,-0.048828
117672,1944-0,35517
117672,,,,0.054688,0.448242,0.001953
117682,,,,0.012695,0.381836,0.012695
117692,1944-0,35517
117693,,,,0.016602,0.333984,-0.021484
117703,,,,0.006836,0.342773,-0.067383
117713,1945-0,35517
117713,,,,-0.017578,0.409180,-0.089844
117724,,,,-0.041016,0.498047,-0.061523
117734,1944-0,35518
117734,,,,-0.041992,0.609375,-0.084961
117744,,,,-0.014648,0.695313,-0.119141
117754,1945-0,35520
117754,,,,0.011719,0.788086,-0.103516
117765,,,,0.026367,0.882813,-0.066406
117775,1945-0,35519
117775,,,,0.054688,0.977539,-0.033203
117785,,,,0.094727,1.092773,-0.020508
117795,1943-0,35519
117795,,,,0.088867,1.167969,-0.008789
117806,,,,0.131836,1.260742,-0.021484
117816,1943-0,35521
117816,,,,0.185547,1.343750,-0.040039
117826,,,,0.238281,1.416016,-0.048828
117836,1944-0,35516
117836,,,,0.255859,1.472656,-0.052734
117847,,,,0.298828,1.537109,-0.097656
117857,1942-0,35510
117857,,,,0.337891,1.571289,-0.173828
117867,,,,0.298828,1.528320,-0.210938
117877,1942-0,35505
117878,,,,0.276367,1.397461,-0.201172
117888,,,,0.187500,1.249023,-0.075195
117898,1945-0,35498
117898,,,,-0.055664,1.129883,0.138672
117908,,,,-0.270508,1.031250,0.383789
117918,1945-0,35521
117919,,,,-0.393555,0.927734,0.561523
117929,,,,-0.406250,0.907227,0.580078
117939,1944-0,35535
117939,,,,-0.340820,1.028320,0.363281
117949,,,,-0.201172,1.199219,0.311523
117959,1942-0,35512
117960,,,,-0.136719,1.327148,0.247070
117970,,,,-0.130859,1.443359,0.110352
117980,1944-0,35503
117980,,,,-0.134766,1.438477,0.063477
117990,,,,-0.079102,1.328125,0.145508
118000,1944-0,35514
118001,,,,0.052734,1.245117,0.181641
118011,,,,0.155273,1.194336,0.237305
118021,1943-0,35514
118021,,,,0.220703,1.127930,0.286133
118032,,,,0.209961,1.025391,0.240234
118041,1945-0,35506
118042,,,,0.168945,0.914063,0.123047
118052,,,,0.128906,0.780273,-0.017578
118062,1944-0,35505
118062,,,,0.090820,0.722656,-0.107422
118073,,,,0.031250,0.661133,-0.115234
118083,1944-0,35505
118083,,,,-0.010742,0.619141,-0.081055
118093,,,,-0.071289,0.555664,-0.043945
118103,1942-0,35499
118103,,,,-0.091797,0.456055,-0.031250
118114,,,,-0.102539,0.356445,-0.028320
118124,1942-0,35498
118124,,,,-0.086914,0.290039,-0.043945
118134,,,,-0.073242,0.278320,-0.052734
118144,1945-0,35495
118144,,,,-0.047852,0.303711,-0.035156
118155,,,,-0.014648,0.396484,-0.023438
118165,1944-0,35492
118165,,,,0.015625,0.482422,-0.000977
118175,,,,0.063477,0.596680,-0.007813
118185,1944-0,35497
118186,,,,0.124023,0.705078,-0.034180
118196,,,,0.164063,0.821289,-0.062500
118206,1946-0,35500
118206,,,,0.140625,0.942383,-0.081055
118216,,,,0.078125,1.050781,-0.053711
118226,1942-0,35501
118227,,,,-0.018555,1.189453,-0.055664
118237,,,,-0.084961,1.291016,-0.043945
118247,1943-0,35500
118247,,,,-0.111328,1.337891,-0.066406
118257,,,,-0.157227,1.361328,-0.093750
118267,1944-0,35497
118268,,,,-0.197266,1.372070,-0.139648
118278,,,,-0.218750,1.425781,-0.195313
118288,1943-0,35492
118288,,,,-0.196289,1.468750,-0.238281
118298,,,,-0.146484,1.486328,-0.205078
118308,1942-0,35488
118309,,,,-0.100586,1.429688,-0.107422
118319,,,,-0.021484,1.359375,-0.053711
118329,1946-0,35485
118329,,,,0.074219,1.318359,0.040039
118339,,,,0.160156,1.307617,0.214844
118349,1945-0,35498
118350,,,,0.176758,1.286133,0.470703
118360,,,,0.078125,1.216797,0.745117
118370,1943-0,35526
118370,,,,-0.021484,1.204102,0.812500
118381,,,,0.019531,1.260742,0.700195
118390,1945-0,35514
118391,,,,0.097656,1.252930,0.531250
118401,,,,0.232422,1.247070,0.333008
118411,1941-0,35500
118411,,,,0.302734,1.257813,0.130859
118422,,,,0.244141,1.253906,0.039063
118432,1945-0,35488
118432,,,,0.132813,1.234375,0.053711
118442,,,,-0.011719,1.229492,0.143555
118452,1943-0,35478
118452,,,,-0.137695,1.224609,0.278320
118463,,,,-0.177734,1.198242,0.320313
118473,1944-0,35470
118473,,,,-0.162109,1.043945,0.235352
118483,,,,-0.104492,0.883789,0.085938
118493,1945-0,35470
118514,1945-0,35475
118493,,,,-0.037109,0.749023,-0.062500
118504,,,,0.041016,0.643555,-0.124023
118514,,,,0.089844,0.607422,-0.104492
118524,,,,0.111328,0.605469,-0.045898
118534,1943-0,35475
118535,,,,0.081055,0.567383,-0.032227
118545,,,,0.080078,0.469727,-0.037109
118555,1942-0,35471
118555,,,,0.083008,0.378906,-0.021484
118565,,,,0.041016,0.310547,0.023438
118575,1942-0,35468
118576,,,,-0.001953,0.323242,0.060547
118586,,,,-0.042969,0.380859,0.025391
118596,1949-0,35467
118596,,,,-0.071289,0.448242,-0.039063
118606,,,,-0.101563,0.536133,-0.071289
118616,1947-0,35466
118617,,,,-0.131836,0.645508,-0.059570
118627,,,,-0.133789,0.804688,-0.056641
118637,1945-0,35469
118637,,,,-0.068359,0.914063,-0.070313
118647,,,,0.002930,0.943359,-0.050781
118657,1943-0,35470
118658,,,,0.044922,0.952148,-0.042969
118668,,,,0.087891,0.994141,-0.050781
118678,1942-0,35468
118678,,,,0.136719,1.080078,-0.040039
118688,,,,0.228516,1.171875,-0.034180
118698,1944-0,35467
118699,,,,0.293945,1.224609,-0.026367
118709,,,,0.380859,1.261719,-0.041016
118719,1945-0,35465
118719,,,,0.414063,1.288086,-0.049805
118730,,,,0.384766,1.354492,-0.061523
118739,1944-0,35467
118740,,,,0.369141,1.425781,-0.072266
118750,,,,0.313477,1.420898,-0.147461
118760,1942-0,35475
118760,,,,0.232422,1.327148,-0.169922
118771,,,,0.098633,1.213867,-0.096680
118781,1944-0,35476
118781,,,,-0.108398,1.147461,0.125977
118791,,,,-0.268555,1.058594,0.385742
118801,1945-0,35510
118801,,,,-0.297852,0.930664,0.628906
118812,,,,-0.351563,0.917969,0.708008
118822,1944-0,35531
118822,,,,-0.305664,1.037109,0.618164
118832,,,,-0.215820,1.246094,0.466797
118842,1948-0,35508
118842,,,,-0.196289,1.489258,0.186523
118853,,,,-0.213867,1.634766,-0.003906
118863,1943-0,35514
118863,,,,-0.167969,1.547852,-0.014648
118873,,,,-0.084961,1.470703,0.022461
118883,1944-0,35518
118884,,,,0.016602,1.412109,0.133789
118894,,,,0.168945,1.313477,0.350586
118904,1947-0,35514
118904,,,,0.251953,1.220703,0.434570
118914,,,,0.250977,1.118164,0.350586
118924,1944-0,35511
118925,,,,0.208984,0.997070,0.192383
118935,,,,0.165039,0.882813,0.018555
118945,1948-0,35516
118945,,,,0.124023,0.788086,-0.124023
118955,,,,0.079102,0.744141,-0.139648
118965,1946-0,35519
118966,,,,0.022461,0.711914,-0.091797
118976,,,,-0.018555,0.651367,-0.038086
118986,1945-0,35517
118986,,,,-0.053711,0.560547,-0.032227
118996,,,,-0.076172,0.421875,-0.051758
119006,1944-0,35517
119007,,,,-0.089844,0.296875,-0.069336
119017,,,,-0.076172,0.230469,-0.069336
119027,1942-0,35515
119027,,,,-0.033203,0.257813,-0.055664
119037,,,,0.031250,0.343750,-0.037109
119047,1944-0,35512
119048,,,,0.084961,0.446289,-0.007813
119058,,,,0.151367,0.539063,-0.014648
119068,1945-0,35515
119068,,,,0.196289,0.627930,-0.052734
119078,,,,0.239258,0.734375,-0.090820
119088,1947-0,35521
119089,,,,0.278320,0.796875,-0.042969
119099,,,,0.196289,0.891602,-0.009766
119109,1945-0,35517
119109,,,,0.067383,1.032227,-0.028320
119120,,,,-0.026367,1.107422,0.017578
119130,1943-0,35512
119130,,,,-0.139648,1.184570,0.013672
119140,,,,-0.200195,1.269531,-0.028320
119150,1943-0,35508
119150,,,,-0.237305,1.335938,-0.107422
119161,,,,-0.226563,1.375000,-0.184570
119171,1944-0,35503
119171,,,,-0.155273,1.418945,-0.282227
119181,,,,-0.103516,1.407227,-0.291016
119191,1949-0,35495
119191,,,,-0.086914,1.414063,-0.223633
119202,,,,-0.058594,1.414063,-0.120117
119212,1944-0,35486
119212,,,,0.054688,1.430664,-0.069336
119222,,,,0.132813,1.456055,-0.014648
119232,1943-0,35490
119232,,,,0.124023,1.445313,0.203125
119243,,,,-0.008789,1.328125,0.525391
119253,1946-0,35522
119253,,,,-0.099609,1.253906,0.778320
119263,,,,-0.031250,1.212891,0.833008
119273,1945-0,35509
119274,,,,0.082031,1.165039,0.644531
119284,,,,0.245117,1.101563,0.348633
119294,1943-0,35500
119294,,,,0.419922,1.062500,-0.006836
119304,,,,0.430664,1.045898,-0.280273
119314,1945-0,35500
119315,,,,0.313477,1.110352,-0.227539
119325,,,,0.223633,1.170898,0.126953
119335,1945-0,35484
119335,,,,0.110352,1.207031,0.346680
119345,,,,-0.004883,1.177734,0.401367
119355,1943-0,35479
119356,,,,-0.079102,1.098633,0.375000
119366,,,,-0.090820,1.002930,0.219727
119376,1943-0,35476
119376,,,,-0.055664,0.921875,0.084961
119386,,,,-0.022461,0.888672,-0.011719
119396,1943-0,35474
119397,,,,0.016602,0.852539,-0.026367
119407,,,,0.049805,0.822266,-0.030273
119417,1943-0,35476
119417,,,,0.036133,0.742188,-0.007813
119428,,,,0.032227,0.636719,-0.002930
119437,1944-0,35476
119438,,,,0.026367,0.544922,-0.019531
119448,,,,0.015625,0.469727,-0.047852
119458,1943-0,35473
119458,,,,0.008789,0.428711,-0.062500
119469,,,,-0.003906,0.429688,-0.073242
119479,1945-0,35469
119479,,,,-0.030273,0.482422,-0.081055
119489,,,,-0.029297,0.532227,-0.077148
119499,1941-0,35470
119499,,,,-0.053711,0.611328,-0.108398
119510,,,,-0.047852,0.678711,-0.115234
119520,1944-0,35473
119520,,,,-0.006836,0.753906,-0.073242
119530,,,,0.023438,0.815430,-0.042969
119540,1944-0,35476
119540,,,,0.079102,0.844727,-0.032227
119551,,,,0.071289,0.856445,-0.036133
119561,,,,0.096680,0.872070,-0.032227
119571,,,,0.106445,0.906250,-0.024414
119561,1944-0,35480
119581,1944-0,35481
119582,,,,0.166992,0.984375,-0.012695
119592,,,,0.239258,1.060547,0.022461
119602,1943-0,35474
119602,,,,0.339844,1.186523,0.017578
119612,,,,0.403320,1.325195,-0.020508
119622,1947-0,35473
119623,,,,0.427734,1.434570,-0.050781
119633,,,,0.424805,1.485352,-0.109375
119643,1944-0,35478
119643,,,,0.331055,1.367188,-0.126953
119653,,,,0.199219,1.258789,-0.125977
119663,1946-0,35476
119664,,,,-0.030273,1.171875,-0.046875
119674,,,,-0.273438,1.127930,0.180664
119684,1948-0,35488
119684,,,,-0.442383,1.083008,0.450195
119694,,,,-0.355469,1.014648,0.563477
119704,1946-0,35502
119705,,,,-0.188477,1.059570,0.489258
119715,,,,-0.020508,1.117188,0.419922
119725,1947-0,35496
119725,,,,0.098633,1.228516,0.376953
119735,,,,0.041016,1.415039,0.232422
119745,1947-0,35482
119746,,,,-0.014648,1.516602,0.133789
119756,,,,0.029297,1.532227,0.126953
119766,1943-0,35489
119766,,,,0.086914,1.499023,0.193359
119777,,,,0.113281,1.422852,0.304688
119787,1945-0,35491
119787,,,,0.129883,1.283203,0.326172
119797,,,,0.125977,1.164063,0.227539
119807,1946-0,35479
119807,,,,0.094727,1.004883,0.191406
119818,,,,0.039063,0.941406,0.099609
119828,1945-0,35472
119828,,,,0.007813,0.915039,-0.024414
119838,,,,0.019531,0.874023,-0.094727
119848,1946-0,35467
119848,,,,0.030273,0.801758,-0.090820
119859,,,,-0.002930,0.730469,-0.081055
119869,1946-0,35463
119869,,,,-0.027344,0.622070,-0.083008
119879,,,,-0.042969,0.521484,-0.079102
119889,1946-0,35467
119890,,,,-0.033203,0.424805,-0.072266
119900,,,,-0.020508,0.371094,-0.048828
119910,1951-0,35470
119910,,,,-0.020508,0.352539,-0.018555
119920,,,,0.033203,0.366211,0.001953
119930,1944-0,35466
119931,,,,0.054688,0.390625,-0.005859
119941,,,,0.127930,0.437500,-0.036133
119951,1944-0,35463
119951,,,,0.167969,0.518555,-0.079102
119961,,,,0.180664,0.614258,-0.122070
119971,1945-0,35463
119972,,,,0.177734,0.723633,-0.122070
119982,,,,0.117188,0.808594,-0.097656
119992,1945-0,35465
119992,,,,0.053711,0.875000,-0.052734
120002,,,,-0.076172,0.931641,-0.047852
120012,1945-0,35465
120013,,,,-0.207031,1.001953,-0.047852
120023,,,,-0.285156,1.104492,-0.018555
120033,1947-0,35461
120033,,,,-0.365234,1.221680,-0.029297
120043,,,,-0.420898,1.337891,-0.082031
120053,1944-0,35459
120054,,,,-0.353516,1.422852,-0.171875
120064,,,,-0.250000,1.451172,-0.255859
120074,1947-0,35459
120074,,,,-0.149414,1.464844,-0.266602
120085,,,,-0.041992,1.453125,-0.224609
120094,1948-0,35470
120095,,,,0.089844,1.449219,-0.224609
120105,,,,0.271484,1.404297,-0.180664
120115,1947-0,35472
120115,,,,0.353516,1.344727,-0.027344
120126,,,,0.315430,1.283203,0.175781
120136,1947-0,35475
120136,,,,0.126953,1.208008,0.355469
120146,,,,0.000977,1.117188,0.522461
120156,1947-0,35503
120156,,,,-0.012695,1.080078,0.637695
120167,,,,0.023438,1.137695,0.569336
120177,1948-0,35491
120177,,,,0.093750,1.205078,0.443359
120187,,,,0.217773,1.232422,0.313477
120197,1943-0,35470
120197,,,,0.263672,1.261719,0.186523
120208,,,,0.202148,1.252930,0.091797
120218,1943-0,35461
120218,,,,0.094727,1.232422,0.045898
120228,,,,-0.053711,1.263672,0.054688
120238,1944-0,35454
120239,,,,-0.166992,1.266602,0.143555
120249,,,,-0.196289,1.255859,0.219727
120259,1944-0,35449
120259,,,,-0.128906,1.185547,0.231445
120269,,,,-0.050781,1.034180,0.168945
120279,1945-0,35447
120280,,,,0.026367,0.913086,0.046875
120290,,,,0.100586,0.811523,-0.068359
120300,1946-0,35447
120300,,,,0.166016,0.740234,-0.094727
120310,,,,0.167969,0.678711,-0.041016
120320,1945-0,35448
120321,,,,0.159180,0.607422,0.021484
120331,,,,0.144531,0.492188,0.049805
120341,1944-0,35448
120341,,,,0.094727,0.368164,0.043945
120351,,,,0.046875,0.281250,-0.000977
120361,1949-0,35450
120362,,,,-0.001953,0.243164,-0.040039
120372,,,,-0.066406,0.291992,-0.049805
120382,1946-0,35452
120382,,,,-0.128906,0.408203,-0.057617
120392,,,,-0.159180,0.543945,-0.077148
120402,1944-0,35449
120403,,,,-0.162109,0.663086,-0.083984
120413,,,,-0.152344,0.778320,-0.067383
120423,1946-0,35447
120423,,,,-0.133789,0.890625,-0.025391
120434,,,,-0.100586,1.007813,-0.022461
120444,1947-0,35448
120444,,,,-0.026367,1.114258,-0.027344
120454,,,,0.066406,1.209961,-0.029297
120464,1945-0,35453
120464,,,,0.114258,1.281250,0.029297
120475,,,,0.108398,1.308594,0.129883
120485,1946-0,35454
120485,,,,0.142578,1.349609,0.075195
120495,,,,0.205078,1.338867,-0.084961
120505,1945-0,35444
120505,,,,0.260742,1.296875,-0.262695
120516,,,,0.283203,1.296875,-0.307617
120526,1947-0,35443
120526,,,,0.263672,1.288086,-0.202148
120536,,,,0.196289,1.238281,-0.064453
120546,1945-0,35445
120547,,,,0.120117,1.144531,0.020508
120557,,,,-0.056641,1.006836,0.134766
120567,1942-0,35452
120567,,,,-0.281250,0.927734,0.325195
120577,,,,-0.451172,0.897461,0.513672
120587,1946-0,35491
120588,,,,-0.470703,0.923828,0.609375
120598,,,,-0.387695,1.070313,0.508789
120608,1947-0,35503
120608,,,,-0.225586,1.256836,0.400391
120618,,,,-0.122070,1.419922,0.392578
120628,1945-0,35478
120629,,,,-0.190430,1.634766,0.257813
120639,,,,-0.206055,1.774414,0.046875
120649,1945-0,35481
120649,,,,-0.117188,1.754883,-0.031250
120659,,,,-0.031250,1.649414,0.032227
120669,1944-0,35481
120670,,,,0.072266,1.520508,0.127930
120680,,,,0.138672,1.341797,0.252930
120690,1943-0,35470
120690,,,,0.128906,1.156250,0.264648
120701,,,,0.080078,0.959961,0.151367
120710,1946-0,35462
120711,,,,0.064453,0.777344,0.043945
120721,,,,0.048828,0.634766,-0.026367
120731,1945-0,35469
120731,,,,0.027344,0.566406,-0.064453
120742,,,,0.020508,0.536133,-0.083008
120752,1942-0,35468
120752,,,,0.004883,0.492188,-0.072266
120762,,,,-0.011719,0.422852,-0.063477
120772,1942-0,35464
120772,,,,-0.019531,0.353516,-0.082031
120783,,,,-0.037109,0.305664,-0.107422
120793,1944-0,35464
120793,,,,-0.043945,0.296875,-0.118164
120803,,,,0.023438,0.325195,-0.095703
120813,1944-0,35461
120813,,,,0.015625,0.380859,-0.090820
120824,,,,0.082031,0.439453,-0.073242
120834,1944-0,35463
120834,,,,0.132813,0.514648,-0.058594
120844,,,,0.145508,0.579102,-0.063477
120854,1946-0,35469
120855,,,,0.114258,0.623047,-0.077148
120865,,,,0.055664,0.694336,-0.078125
120875,1942-0,35468
120875,,,,-0.004883,0.779297,-0.045898
120885,,,,-0.061523,0.894531,-0.047852
120895,1945-0,35463
120896,,,,-0.128906,0.984375,-0.084961
120906,,,,-0.206055,1.063477,-0.111328
120916,1948-0,35458
120916,,,,-0.247070,1.154297,-0.127930
120926,,,,-0.273438,1.228516,-0.132813
120936,1943-0,35454
120937,,,,-0.267578,1.318359,-0.147461
120947,,,,-0.240234,1.386719,-0.157227
120957,1944-0,35451
120957,,,,-0.218750,1.437500,-0.157227
120967,,,,-0.203125,1.458984,-0.160156
120977,1944-0,35448
120978,,,,-0.147461,1.476563,-0.200195
120988,,,,-0.055664,1.506836,-0.211914
120998,1943-0,35455
120998,,,,0.083984,1.534180,-0.172852
121009,,,,0.189453,1.500977,-0.016602
121018,1943-0,35470
121019,,,,0.194336,1.414063,0.223633
121029,,,,0.118164,1.322266,0.460938
121039,1946-0,35503
121039,,,,0.078125,1.204102,0.676758
121050,,,,0.056641,1.127930,0.702148
121060,1943-0,35501
121060,,,,0.115234,1.106445,0.583984
121070,,,,0.235352,1.104492,0.392578
121080,1944-0,35480
121080,,,,0.296875,1.124023,0.118164
121091,,,,0.228516,1.146484,-0.147461
121101,1945-0,35479
121101,,,,0.131836,1.183594,-0.168945
121111,,,,-0.023438,1.234375,-0.041992
121121,1942-0,35477
121121,,,,-0.207031,1.274414,0.121094
121132,,,,-0.313477,1.281250,0.278320
121142,1944-0,35472
121142,,,,-0.327148,1.280273,0.271484
121152,,,,-0.240234,1.124023,0.175781
121162,1944-0,35473
121163,,,,-0.164063,0.948242,0.000977
121173,,,,-0.084961,0.793945,-0.115234
121183,1944-0,35488
121183,,,,0.001953,0.659180,-0.153320
121193,,,,0.046875,0.596680,-0.160156
121203,1944-0,35502
121204,,,,0.075195,0.555664,-0.135742
121214,,,,0.058594,0.503906,-0.093750
121224,1943-0,35508
121224,,,,0.061523,0.424805,-0.062500
121234,,,,0.054688,0.345703,-0.052734
121244,1944-0,35511
121245,,,,0.052734,0.312500,-0.057617
121255,,,,0.035156,0.327148,-0.042969
121265,1943-0,35517
121265,,,,0.007813,0.393555,-0.039063
121275,,,,-0.009766,0.488281,-0.055664
121285,1945-0,35524
121286,,,,-0.013672,0.604492,-0.072266
121296,,,,-0.024414,0.706055,-0.062500
121306,1944-0,35533
121306,,,,-0.029297,0.832031,-0.113281
121317,,,,0.006836,0.926758,-0.132813
121326,1941-0,35526
121327,,,,0.013672,0.972656,-0.110352
121337,,,,0.034180,1.016602,-0.089844
121347,1944-0,35514
121347,,,,0.071289,1.088867,-0.088867
121358,,,,0.095703,1.143555,-0.048828
121368,1942-0,35508
121368,,,,0.163086,1.181641,0.037109
121378,,,,0.264648,1.241211,0.029297
121388,1943-0,35500
121388,,,,0.338867,1.346680,-0.103516
121399,,,,0.354492,1.447266,-0.217773
121409,1945-0,35495
121409,,,,0.300781,1.472656,-0.216797
121419,,,,0.236328,1.405273,-0.165039
121429,1947-0,35490
121429,,,,0.141602,1.290039,-0.091797
121440,,,,-0.007813,1.193359,0.065430
121450,1943-0,35501
121450,,,,-0.195313,1.119141,0.320313
121460,,,,-0.289063,1.028320,0.619141
121470,1945-0,35545
121471,,,,-0.354492,1.015625,0.763672
121481,,,,-0.327148,1.115234,0.677734
121491,1945-0,35529
121491,,,,-0.229492,1.270508,0.458984
121501,,,,-0.236328,1.417969,0.220703
121511,1944-0,35511
121512,,,,-0.280273,1.559570,-0.004883
121522,,,,-0.253906,1.531250,-0.037109
121532,1943-0,35520
121532,,,,-0.193359,1.463867,0.014648
121542,,,,-0.051758,1.394531,0.155273
121552,1944-0,35524
121553,,,,0.105469,1.284180,0.367188
121563,,,,0.190430,1.228516,0.451172
121573,1944-0,35517
121573,,,,0.188477,1.168945,0.366211
121583,,,,0.157227,1.093750,0.190430
121593,1943-0,35512
121594,,,,0.147461,0.995117,0.003906
121604,,,,0.111328,0.906250,-0.125000
121614,1944-0,35516
121614,,,,0.054688,0.817383,-0.123047
121625,,,,0.000977,0.766602,-0.087891
121634,1943-0,35518
121635,,,,-0.026367,0.680664,-0.089844
121645,,,,-0.044922,0.559570,-0.091797
121655,1943-0,35521
121655,,,,-0.052734,0.440430,-0.091797
121666,,,,-0.051758,0.335938,-0.082031
121676,1944-0,35523
121676,,,,-0.041992,0.267578,-0.044922
121686,,,,-0.002930,0.241211,0.011719
121696,1941-0,35524
121696,,,,0.035156,0.277344,0.043945
121707,,,,0.095703,0.341797,0.035156
121717,1945-0,35528
121717,,,,0.165039,0.420898,-0.037109
121727,,,,0.188477,0.538086,-0.090820
121737,1942-0,35530
121737,,,,0.208008,0.654297,-0.045898
121748,,,,0.193359,0.821289,-0.022461
121758,1941-0,35537
121758,,,,0.113281,0.971680,-0.078125
121768,,,,-0.018555,1.047852,-0.095703
121778,1949-0,35530
121779,,,,-0.091797,1.110352,-0.102539
121789,,,,-0.161133,1.172852,-0.122070
121799,1943-0,35527
121799,,,,-0.187500,1.229492,-0.091797
121809,,,,-0.231445,1.321289,-0.099609
121819,1945-0,35525
121820,,,,-0.223633,1.421875,-0.123047
121830,,,,-0.149414,1.467773,-0.127930
121840,1946-0,35517
121840,,,,-0.065430,1.456055,-0.207031
121850,,,,0.031250,1.427734,-0.301758
121860,1945-0,35505
121861,,,,0.115234,1.352539,-0.281250
121871,,,,0.180664,1.315430,-0.117188
121881,1946-0,35500
121881,,,,0.232422,1.320313,0.122070
121891,,,,0.178711,1.254883,0.428711
121902,,,,-0.024414,1.140625,0.735352
121901,1946-0,35536
121912,,,,-0.087891,1.113281,0.908203
121922,1943-0,35547
121922,,,,-0.013672,1.169922,0.833984
121933,,,,0.116211,1.227539,0.583984
121943,1942-0,35519
121943,,,,0.246094,1.227539,0.327148
121953,,,,0.350586,1.235352,0.099609
121963,1942-0,35509
121963,,,,0.337891,1.226563,-0.020508
121974,,,,0.208008,1.231445,0.008789
121984,1944-0,35498
121984,,,,0.054688,1.275391,0.090820
121994,,,,-0.083008,1.261719,0.174805
122004,1943-0,35490
122004,,,,-0.186523,1.217773,0.252930
122015,,,,-0.206055,1.144531,0.262695
122025,1942-0,35483
122025,,,,-0.163086,1.025391,0.212891
122035,,,,-0.100586,0.875977,0.103516
122045,1944-0,35481
122045,,,,-0.028320,0.760742,-0.042969
122056,,,,0.052734,0.648438,-0.140625
122066,1946-0,35477
122066,,,,0.090820,0.572266,-0.149414
122076,,,,0.088867,0.531250,-0.106445
122086,1945-0,35475
122087,,,,0.064453,0.492188,-0.024414
122097,,,,0.062500,0.440430,0.028320
122107,1947-0,35474
122107,,,,0.043945,0.400391,0.038086
122117,,,,0.031250,0.385742,0.001953
122127,1945-0,35476
122128,,,,0.027344,0.411133,-0.054688
122138,,,,0.006836,0.468750,-0.071289
122148,1945-0,35476
122148,,,,-0.013672,0.542969,-0.077148
122158,,,,-0.006836,0.632813,-0.105469
122168,1943-0,35479
122169,,,,0.011719,0.722656,-0.119141
122179,,,,0.031250,0.815430,-0.096680
122189,1944-0,35483
122189,,,,0.039063,0.919922,-0.036133
122199,,,,0.077148,0.999023,0.033203
122209,1943-0,35481
122210,,,,0.080078,1.050781,0.061523
122220,,,,0.109375,1.110352,0.032227
122230,1943-0,35480
122230,,,,0.122070,1.186523,-0.018555
122240,,,,0.126953,1.241211,-0.018555
122250,1945-0,35478
122251,,,,0.165039,1.299805,0.014648
122261,,,,0.237305,1.351563,-0.019531
122271,1947-0,35474
122271,,,,0.283203,1.393555,-0.060547
122282,,,,0.327148,1.383789,-0.090820
122292,1943-0,35469
122292,,,,0.336914,1.332031,-0.085938
122302,,,,0.274414,1.227539,-0.042969
122312,1942-0,35465
122312,,,,0.166992,1.159180,0.034180
122323,,,,-0.001953,1.125977,0.177734
122333,1944-0,35476
122333,,,,-0.157227,1.081055,0.391602
122343,,,,-0.241211,0.995117,0.598633
122353,1943-0,35509
122353,,,,-0.325195,0.972656,0.686523
122364,,,,-0.277344,1.043945,0.551758
122374,1943-0,35498
122374,,,,-0.195313,1.183594,0.416992
122384,,,,-0.204102,1.350586,0.268555
122394,1944-0,35481
122394,,,,-0.248047,1.503906,0.155273
122405,,,,-0.240234,1.534180,0.170898
122415,1945-0,35485
122415,,,,-0.178711,1.491211,0.199219
122425,,,,-0.074219,1.449219,0.263672
122435,1944-0,35485
122436,,,,0.077148,1.350586,0.405273
122446,,,,0.195313,1.251953,0.418945
122456,1942-0,35477
122456,,,,0.233398,1.128906,0.306641
122466,,,,0.230469,1.004883,0.154297
122476,1945-0,35472
122477,,,,0.192383,0.910156,0.027344
122487,,,,0.133789,0.843750,-0.031250
122497,1945-0,35467
122497,,,,0.101563,0.788086,-0.041016
122507,,,,0.052734,0.713867,-0.053711
122517,1946-0,35464
122518,,,,-0.012695,0.583008,-0.083008
122528,,,,-0.072266,0.459961,-0.095703
122538,1942-0,35464
122538,,,,-0.087891,0.373047,-0.094727
122548,,,,-0.087891,0.309570,-0.073242
122558,1944-0,35466
122559,,,,-0.083008,0.281250,-0.034180
122569,,,,-0.048828,0.282227,0.007813
122579,1943-0,35464
122579,,,,-0.024414,0.321289,0.038086
122589,,,,0.026367,0.390625,0.028320
122599,1944-0,35456
122600,,,,0.068359,0.485352,-0.019531
122610,,,,0.128906,0.600586,-0.065430
122620,1943-0,35454
122620,,,,0.192383,0.750977,-0.068359
122631,,,,0.218750,0.893555,-0.017578
122641,1945-0,35458
122641,,,,0.188477,1.023438,-0.012695
122651,,,,0.118164,1.102539,-0.009766
122661,1945-0,35456
122661,,,,0.013672,1.161133,0.003906
122672,,,,-0.088867,1.198242,-0.013672
122682,1948-0,35459
122682,,,,-0.172852,1.228516,-0.012695
122692,,,,-0.241211,1.273438,-0.019531
122702,1941-0,35461
122702,,,,-0.259766,1.360352,-0.056641
122713,,,,-0.221680,1.432617,-0.155273
122723,1944-0,35456
122723,,,,-0.153320,1.423828,-0.250000
122733,,,,-0.083008,1.379883,-0.261719
122743,1941-0,35445
122744,,,,-0.007813,1.341797,-0.181641
122754,,,,0.086914,1.329102,-0.031250
122764,1945-0,35443
122764,,,,0.169922,1.317383,0.224609
122774,,,,0.107422,1.262695,0.581055
122784,1945-0,35468
122785,,,,-0.022461,1.186523,0.809570
122795,,,,-0.046875,1.148438,0.898438
122805,1945-0,35483
122805,,,,0.018555,1.151367,0.775391
122815,,,,0.149414,1.180664,0.550781
122825,1944-0,35463
122826,,,,0.312500,1.270508,0.262695
122836,,,,0.336914,1.365234,0.079102
122846,1944-0,35455
122846,,,,0.257813,1.408203,0.009766
122856,,,,0.129883,1.373047,0.070313
122866,1943-0,35449
122867,,,,-0.053711,1.304688,0.182617
122877,,,,-0.132813,1.222656,0.243164
122887,1946-0,35442
122887,,,,-0.122070,1.138672,0.219727
122897,,,,-0.100586,1.010742,0.152344
122907,1945-0,35438
122908,,,,-0.081055,0.897461,0.041992
122918,,,,-0.059570,0.788086,-0.050781
122928,1941-0,35440
122928,,,,-0.004883,0.701172,-0.103516
122939,,,,0.064453,0.656250,-0.114258
122949,1942-0,35439
122949,,,,0.062500,0.607422,-0.077148
122959,,,,0.060547,0.525391,0.008789
122969,1947-0,35439
122969,,,,0.018555,0.417969,0.072266
122980,,,,0.026367,0.334961,0.049805
122990,1945-0,35440
122990,,,,0.023438,0.307617,-0.011719
123000,,,,-0.007813,0.349609,-0.055664
123010,1944-0,35439
123010,,,,-0.037109,0.424805,-0.058594
123021,,,,-0.053711,0.526367,-0.078125
123031,1943-0,35436
123031,,,,-0.064453,0.625977,-0.088867
123041,,,,-0.053711,0.724609,-0.100586
123051,1946-0,35440
123052,,,,-0.008789,0.781250,-0.118164
123062,,,,0.041992,0.819336,-0.089844
123072,1946-0,35442
123072,,,,0.082031,0.875000,-0.050781
123082,,,,0.094727,0.923828,-0.060547
123092,1943-0,35440
123093,,,,0.114258,0.975586,-0.086914
123103,,,,0.142578,1.027344,-0.081055
123113,1943-0,35439
123113,,,,0.199219,1.110352,-0.046875
123123,,,,0.268555,1.189453,-0.039063
123133,1946-0,35434
123134,,,,0.333008,1.261719,-0.102539
123144,,,,0.308594,1.335938,-0.157227
123154,1944-0,35430
123154,,,,0.282227,1.382813,-0.122070
123164,,,,0.276367,1.467773,-0.032227
123174,1945-0,35440
123175,,,,0.314453,1.513672,0.000977
123185,,,,0.283203,1.453125,-0.004883
123195,1944-0,35441
123195,,,,0.086914,1.365234,0.047852
123205,,,,-0.050781,1.257813,0.258789
123215,1943-0,35448
123216,,,,-0.129883,1.115234,0.472656
123226,,,,-0.265625,1.018555,0.524414
123236,1943-0,35467
123236,,,,-0.387695,1.044922,0.405273
123247,,,,-0.328125,1.172852,0.333008
123257,1944-0,35451
123257,,,,-0.336914,1.345703,0.182617
123267,,,,-0.359375,1.483398,0.001953
123277,1941-0,35448
123277,,,,-0.289063,1.424805,-0.020508
123288,,,,-0.237305,1.283203,0.012695
123298,1944-0,35460
123298,,,,-0.108398,1.225586,0.069336
123308,,,,0.075195,1.228516,0.289063
123318,1944-0,35463
123318,,,,0.242188,1.226563,0.465820
123329,,,,0.306641,1.199219,0.443359
123339,1945-0,35456
123339,,,,0.258789,1.085938,0.266602
123349,,,,0.198242,0.915039,0.048828
123359,1945-0,35456
123360,,,,0.122070,0.805664,-0.055664
123370,,,,0.025391,0.766602,-0.054688
123380,1945-0,35457
123380,,,,-0.036133,0.747070,-0.023438
123390,,,,-0.068359,0.692383,-0.037109
123400,1945-0,35456
123401,,,,-0.123047,0.565430,-0.078125
123411,,,,-0.155273,0.433594,-0.101563
123421,1943-0,35455
123421,,,,-0.146484,0.333008,-0.088867
123431,,,,-0.120117,0.292969,-0.053711
123441,1944-0,35456
123442,,,,-0.086914,0.330078,-0.014648
123452,,,,-0.003906,0.412109,0.003906
123462,1944-0,35467
123462,,,,0.087891,0.489258,-0.014648
123472,,,,0.149414,0.571289,-0.022461
123482,1944-0,35482
123483,,,,0.209961,0.657227,-0.055664
123493,,,,0.266602,0.763672,-0.103516
123503,1945-0,35485
123503,,,,0.259766,0.880859,-0.093750
123513,,,,0.234375,0.933594,-0.024414
123523,1944-0,35478
123524,,,,0.131836,0.975586,0.013672
123534,,,,0.011719,1.017578,-0.017578
123544,1946-0,35468
123544,,,,-0.099609,1.048828,-0.027344
123555,,,,-0.175781,1.096680,-0.055664
123565,1944-0,35461
123565,,,,-0.273438,1.168945,-0.116211
123575,,,,-0.307617,1.237305,-0.146484
123585,1943-0,35454
123585,,,,-0.225586,1.333984,-0.181641
123596,,,,-0.113281,1.348633,-0.174805
123606,1945-0,35447
123606,,,,-0.031250,1.312500,-0.170898
123616,,,,0.115234,1.272461,-0.144531
123626,1949-0,35446
123626,,,,0.200195,1.249023,-0.053711
123637,,,,0.291016,1.245117,0.083984
123647,1945-0,35458
123647,,,,0.337891,1.267578,0.238281
123657,,,,0.200195,1.257813,0.481445
123667,1944-0,35497
123668,,,,-0.059570,1.215820,0.682617
123678,,,,-0.202148,1.221680,0.789063
123688,1942-0,35503
123688,,,,-0.175781,1.248047,0.802734
123698,,,,0.002930,1.257813,0.696289
123708,1944-0,35476
123709,,,,0.194336,1.253906,0.410156
123719,,,,0.271484,1.263672,0.092773
123729,1943-0,35471
123729,,,,0.206055,1.294922,-0.197266
123739,,,,0.085938,1.359375,-0.167969
123749,1944-0,35468
123750,,,,-0.038086,1.432617,0.118164
123760,,,,-0.071289,1.431641,0.364258
123770,1948-0,35456
123770,,,,-0.073242,1.330078,0.396484
123780,,,,-0.070313,1.131836,0.257813
123790,1941-0,35450
123791,,,,-0.059570,0.923828,0.100586
123801,,,,-0.026367,0.783203,-0.046875
123811,1942-0,35455
123811,,,,0.016602,0.717773,-0.118164
123822,,,,0.086914,0.693359,-0.118164
123832,1943-0,35465
123832,,,,0.122070,0.669922,-0.069336
123842,,,,0.119141,0.589844,0.009766
123852,1948-0,35473
123852,,,,0.099609,0.501953,0.040039
123863,,,,0.084961,0.398438,0.030273
123873,1945-0,35482
123873,,,,0.050781,0.320313,0.015625
123883,,,,0.022461,0.318359,-0.005859
123893,1943-0,35490
123893,,,,-0.021484,0.353516,-0.031250
123904,,,,-0.048828,0.438477,-0.061523
123914,1943-0,35499
123914,,,,-0.077148,0.529297,-0.059570
123924,,,,-0.086914,0.636719,-0.041016
123934,1944-0,35508
123935,,,,-0.083984,0.742188,-0.060547
123945,,,,-0.051758,0.825195,-0.069336
123955,1946-0,35516
123955,,,,-0.006836,0.879883,-0.041016
123965,,,,0.016602,0.948242,-0.016602
123975,1944-0,35508
123976,,,,0.022461,1.030273,0.011719
123986,,,,0.062500,1.110352,0.033203
123996,1943-0,35498
123996,,,,0.127930,1.169922,0.057617
124006,,,,0.232422,1.209961,0.100586
124016,1945-0,35489
124017,,,,0.310547,1.256836,0.055664
124027,,,,0.337891,1.358398,-0.050781
124037,1944-0,35483
124037,,,,0.301758,1.442383,-0.083984
